submission_id,QUD,RT,age,comments,endTime,experiment_id,fileID,gender,is_expert,min_chars,option1,option2,optionLeft,optionRight,picture,question,response,snellen_result,startDate,startTime,timeSpent,trial_name,trial_number
439,,1388,98,hier bin ich ein experte,1562674093708,71,NA,divers,Yes,0,NA,NA,NA,NA,images/snellen/snellen.png,Which row is the last one where you can recognize <strong>all letters</strong> completely? Only type in the number of this row (between 1 and 11): ,7,11,Tue Jul 09 2019 14:07:02 GMT+0200 (Mitteleuropäische Sommerzeit),1562674022061,1.1941166666666667,test_snellen,1
439,,2718,98,hier bin ich ein experte,1562674093708,71,NA,divers,Yes,NA,Yes,No,NA,NA,NA,Do you consider yourself an <strong>expert in Cubist art</strong> or were ever engaged in any kind of Cubist art education?,6,11,Tue Jul 09 2019 14:07:02 GMT+0200 (Mitteleuropäische Sommerzeit),1562674022061,1.1941166666666667,b0_expert,1
439,,1754,98,hier bin ich ein experte,1562674093708,71,33,divers,Yes,NA,NA,NA,not at all,very much,images/stimuli/33.jpg,How much do you like this painting?,6,11,Tue Jul 09 2019 14:07:02 GMT+0200 (Mitteleuropäische Sommerzeit),1562674022061,1.1941166666666667,b1_exp,1
439,,1583,98,hier bin ich ein experte,1562674093708,71,29,divers,Yes,NA,NA,NA,not at all,very much,images/stimuli/29.jpg,How much do you like this painting?,1,11,Tue Jul 09 2019 14:07:02 GMT+0200 (Mitteleuropäische Sommerzeit),1562674022061,1.1941166666666667,b1_exp,2
439,,1364,98,hier bin ich ein experte,1562674093708,71,48,divers,Yes,NA,NA,NA,not at all,very much,images/stimuli/48.jpg,How much do you like this painting?,5,11,Tue Jul 09 2019 14:07:02 GMT+0200 (Mitteleuropäische Sommerzeit),1562674022061,1.1941166666666667,b1_exp,3
439,,1822,98,hier bin ich ein experte,1562674093708,71,4,divers,Yes,NA,NA,NA,not at all,very much,images/stimuli/4.jpg,How much do you like this painting?,1,11,Tue Jul 09 2019 14:07:02 GMT+0200 (Mitteleuropäische Sommerzeit),1562674022061,1.1941166666666667,b1_exp,4
439,,2743,98,hier bin ich ein experte,1562674093708,71,54,divers,Yes,NA,NA,NA,not at all,very much,images/stimuli/54.jpg,How much do you like this painting?,4,11,Tue Jul 09 2019 14:07:02 GMT+0200 (Mitteleuropäische Sommerzeit),1562674022061,1.1941166666666667,b1_exp,5
439,,1197,98,hier bin ich ein experte,1562674093708,71,27,divers,Yes,NA,NA,NA,not at all,very much,images/stimuli/27.jpg,How much do you like this painting?,2,11,Tue Jul 09 2019 14:07:02 GMT+0200 (Mitteleuropäische Sommerzeit),1562674022061,1.1941166666666667,b1_exp,6
439,,684,98,hier bin ich ein experte,1562674093708,71,50,divers,Yes,NA,NA,NA,not at all,very much,images/stimuli/50.jpg,How much do you like this painting?,1,11,Tue Jul 09 2019 14:07:02 GMT+0200 (Mitteleuropäische Sommerzeit),1562674022061,1.1941166666666667,b1_exp,7
439,,2073,98,hier bin ich ein experte,1562674093708,71,57,divers,Yes,NA,NA,NA,not at all,very much,images/stimuli/57.jpg,How much do you like this painting?,5,11,Tue Jul 09 2019 14:07:02 GMT+0200 (Mitteleuropäische Sommerzeit),1562674022061,1.1941166666666667,b1_exp,8
439,,2377,98,hier bin ich ein experte,1562674093708,71,36,divers,Yes,NA,NA,NA,not at all,very much,images/stimuli/36.jpg,How much do you like this painting?,4,11,Tue Jul 09 2019 14:07:02 GMT+0200 (Mitteleuropäische Sommerzeit),1562674022061,1.1941166666666667,b1_exp,9
439,,2249,98,hier bin ich ein experte,1562674093708,71,58,divers,Yes,NA,NA,NA,not at all,very much,images/stimuli/58.jpg,How much do you like this painting?,7,11,Tue Jul 09 2019 14:07:02 GMT+0200 (Mitteleuropäische Sommerzeit),1562674022061,1.1941166666666667,b1_exp,10
439,,1973,98,hier bin ich ein experte,1562674093708,71,49,divers,Yes,NA,NA,NA,not at all,very much,images/stimuli/49.jpg,How much do you like this painting?,5,11,Tue Jul 09 2019 14:07:02 GMT+0200 (Mitteleuropäische Sommerzeit),1562674022061,1.1941166666666667,b1_exp,11
439,,646,98,hier bin ich ein experte,1562674093708,71,16,divers,Yes,NA,NA,NA,not at all,very much,images/stimuli/16.jpg,How much do you like this painting?,7,11,Tue Jul 09 2019 14:07:02 GMT+0200 (Mitteleuropäische Sommerzeit),1562674022061,1.1941166666666667,b1_exp,12
439,,1516,98,hier bin ich ein experte,1562674093708,71,12,divers,Yes,NA,NA,NA,not at all,very much,images/stimuli/12.jpg,How much do you like this painting?,6,11,Tue Jul 09 2019 14:07:02 GMT+0200 (Mitteleuropäische Sommerzeit),1562674022061,1.1941166666666667,b1_exp,13
439,,2111,98,hier bin ich ein experte,1562674093708,71,13,divers,Yes,NA,NA,NA,not at all,very much,images/stimuli/13.jpg,How much do you like this painting?,5,11,Tue Jul 09 2019 14:07:02 GMT+0200 (Mitteleuropäische Sommerzeit),1562674022061,1.1941166666666667,b1_exp,14
439,,400,98,hier bin ich ein experte,1562674093708,71,46,divers,Yes,NA,NA,NA,not at all,very much,images/stimuli/46.jpg,How much do you like this painting?,6,11,Tue Jul 09 2019 14:07:02 GMT+0200 (Mitteleuropäische Sommerzeit),1562674022061,1.1941166666666667,b1_exp,15
439,,2327,98,hier bin ich ein experte,1562674093708,71,7,divers,Yes,NA,NA,NA,not at all,very much,images/stimuli/7.jpg,How much do you like this painting?,2,11,Tue Jul 09 2019 14:07:02 GMT+0200 (Mitteleuropäische Sommerzeit),1562674022061,1.1941166666666667,b1_exp,16
439,,2951,98,hier bin ich ein experte,1562674093708,71,11,divers,Yes,NA,NA,NA,not at all,very much,images/stimuli/11.jpg,How much do you like this painting?,1,11,Tue Jul 09 2019 14:07:02 GMT+0200 (Mitteleuropäische Sommerzeit),1562674022061,1.1941166666666667,b1_exp,17
439,,1609,98,hier bin ich ein experte,1562674093708,71,24,divers,Yes,NA,NA,NA,not at all,very much,images/stimuli/24.jpg,How much do you like this painting?,4,11,Tue Jul 09 2019 14:07:02 GMT+0200 (Mitteleuropäische Sommerzeit),1562674022061,1.1941166666666667,b1_exp,18
439,,1190,98,hier bin ich ein experte,1562674093708,71,20,divers,Yes,NA,NA,NA,not at all,very much,images/stimuli/20.jpg,How much do you like this painting?,7,11,Tue Jul 09 2019 14:07:02 GMT+0200 (Mitteleuropäische Sommerzeit),1562674022061,1.1941166666666667,b1_exp,19
439,,222,98,hier bin ich ein experte,1562674093708,71,42,divers,Yes,NA,NA,NA,not at all,very much,images/stimuli/42.jpg,How much do you like this painting?,3,11,Tue Jul 09 2019 14:07:02 GMT+0200 (Mitteleuropäische Sommerzeit),1562674022061,1.1941166666666667,b1_exp,20
439,,1960,98,hier bin ich ein experte,1562674093708,71,38,divers,Yes,NA,NA,NA,not at all,very much,images/stimuli/38.jpg,How much do you like this painting?,5,11,Tue Jul 09 2019 14:07:02 GMT+0200 (Mitteleuropäische Sommerzeit),1562674022061,1.1941166666666667,b1_exp,21
439,,1972,98,hier bin ich ein experte,1562674093708,71,15,divers,Yes,NA,NA,NA,not at all,very much,images/stimuli/15.jpg,How much do you like this painting?,2,11,Tue Jul 09 2019 14:07:02 GMT+0200 (Mitteleuropäische Sommerzeit),1562674022061,1.1941166666666667,b1_exp,22
439,,2703,98,hier bin ich ein experte,1562674093708,71,25,divers,Yes,NA,NA,NA,not at all,very much,images/stimuli/25.jpg,How much do you like this painting?,4,11,Tue Jul 09 2019 14:07:02 GMT+0200 (Mitteleuropäische Sommerzeit),1562674022061,1.1941166666666667,b1_exp,23
439,,1807,98,hier bin ich ein experte,1562674093708,71,56,divers,Yes,NA,NA,NA,not at all,very much,images/stimuli/56.jpg,How much do you like this painting?,6,11,Tue Jul 09 2019 14:07:02 GMT+0200 (Mitteleuropäische Sommerzeit),1562674022061,1.1941166666666667,b1_exp,24
439,,2586,98,hier bin ich ein experte,1562674093708,71,47,divers,Yes,NA,NA,NA,not at all,very much,images/stimuli/47.jpg,How much do you like this painting?,2,11,Tue Jul 09 2019 14:07:02 GMT+0200 (Mitteleuropäische Sommerzeit),1562674022061,1.1941166666666667,b1_exp,25
439,,1823,98,hier bin ich ein experte,1562674093708,71,43,divers,Yes,NA,NA,NA,not at all,very much,images/stimuli/43.jpg,How much do you like this painting?,4,11,Tue Jul 09 2019 14:07:02 GMT+0200 (Mitteleuropäische Sommerzeit),1562674022061,1.1941166666666667,b1_exp,26
439,,1455,98,hier bin ich ein experte,1562674093708,71,8,divers,Yes,NA,NA,NA,not at all,very much,images/stimuli/8.jpg,How much do you like this painting?,3,11,Tue Jul 09 2019 14:07:02 GMT+0200 (Mitteleuropäische Sommerzeit),1562674022061,1.1941166666666667,b1_exp,27
439,,2234,98,hier bin ich ein experte,1562674093708,71,6,divers,Yes,NA,NA,NA,not at all,very much,images/stimuli/6.jpg,How much do you like this painting?,1,11,Tue Jul 09 2019 14:07:02 GMT+0200 (Mitteleuropäische Sommerzeit),1562674022061,1.1941166666666667,b1_exp,28
439,,1549,98,hier bin ich ein experte,1562674093708,71,14,divers,Yes,NA,NA,NA,not at all,very much,images/stimuli/14.jpg,How much do you like this painting?,4,11,Tue Jul 09 2019 14:07:02 GMT+0200 (Mitteleuropäische Sommerzeit),1562674022061,1.1941166666666667,b1_exp,29
439,,2230,98,hier bin ich ein experte,1562674093708,71,17,divers,Yes,NA,NA,NA,not at all,very much,images/stimuli/17.jpg,How much do you like this painting?,1,11,Tue Jul 09 2019 14:07:02 GMT+0200 (Mitteleuropäische Sommerzeit),1562674022061,1.1941166666666667,b1_exp,30
439,,509,98,hier bin ich ein experte,1562674093708,71,5,divers,Yes,NA,NA,NA,not at all,very much,images/stimuli/5.jpg,How much do you like this painting?,5,11,Tue Jul 09 2019 14:07:02 GMT+0200 (Mitteleuropäische Sommerzeit),1562674022061,1.1941166666666667,b1_exp,31
439,,1877,98,hier bin ich ein experte,1562674093708,71,51,divers,Yes,NA,NA,NA,not at all,very much,images/stimuli/51.jpg,How much do you like this painting?,3,11,Tue Jul 09 2019 14:07:02 GMT+0200 (Mitteleuropäische Sommerzeit),1562674022061,1.1941166666666667,b1_exp,32
439,,631,98,hier bin ich ein experte,1562674093708,71,19,divers,Yes,NA,NA,NA,not at all,very much,images/stimuli/19.jpg,How much do you like this painting?,6,11,Tue Jul 09 2019 14:07:02 GMT+0200 (Mitteleuropäische Sommerzeit),1562674022061,1.1941166666666667,b1_exp,33
439,,510,98,hier bin ich ein experte,1562674093708,71,34,divers,Yes,NA,NA,NA,not at all,very much,images/stimuli/34.jpg,How much do you like this painting?,1,11,Tue Jul 09 2019 14:07:02 GMT+0200 (Mitteleuropäische Sommerzeit),1562674022061,1.1941166666666667,b1_exp,34
439,,2541,98,hier bin ich ein experte,1562674093708,71,3,divers,Yes,NA,NA,NA,not at all,very much,images/stimuli/3.jpg,How much do you like this painting?,7,11,Tue Jul 09 2019 14:07:02 GMT+0200 (Mitteleuropäische Sommerzeit),1562674022061,1.1941166666666667,b1_exp,35
439,,707,98,hier bin ich ein experte,1562674093708,71,39,divers,Yes,NA,NA,NA,not at all,very much,images/stimuli/39.jpg,How much do you like this painting?,3,11,Tue Jul 09 2019 14:07:02 GMT+0200 (Mitteleuropäische Sommerzeit),1562674022061,1.1941166666666667,b1_exp,36
439,,353,98,hier bin ich ein experte,1562674093708,71,32,divers,Yes,NA,NA,NA,not at all,very much,images/stimuli/32.jpg,How much do you like this painting?,3,11,Tue Jul 09 2019 14:07:02 GMT+0200 (Mitteleuropäische Sommerzeit),1562674022061,1.1941166666666667,b1_exp,37
439,,1496,98,hier bin ich ein experte,1562674093708,71,41,divers,Yes,NA,NA,NA,not at all,very much,images/stimuli/41.jpg,How much do you like this painting?,1,11,Tue Jul 09 2019 14:07:02 GMT+0200 (Mitteleuropäische Sommerzeit),1562674022061,1.1941166666666667,b1_exp,38
439,,1873,98,hier bin ich ein experte,1562674093708,71,45,divers,Yes,NA,NA,NA,not at all,very much,images/stimuli/45.jpg,How much do you like this painting?,3,11,Tue Jul 09 2019 14:07:02 GMT+0200 (Mitteleuropäische Sommerzeit),1562674022061,1.1941166666666667,b1_exp,39
439,,2962,98,hier bin ich ein experte,1562674093708,71,22,divers,Yes,NA,NA,NA,not at all,very much,images/stimuli/22.jpg,How much do you like this painting?,3,11,Tue Jul 09 2019 14:07:02 GMT+0200 (Mitteleuropäische Sommerzeit),1562674022061,1.1941166666666667,b1_exp,40
439,,2510,98,hier bin ich ein experte,1562674093708,71,35,divers,Yes,NA,NA,NA,not at all,very much,images/stimuli/35.jpg,How much do you like this painting?,1,11,Tue Jul 09 2019 14:07:02 GMT+0200 (Mitteleuropäische Sommerzeit),1562674022061,1.1941166666666667,b1_exp,41
439,,1551,98,hier bin ich ein experte,1562674093708,71,44,divers,Yes,NA,NA,NA,not at all,very much,images/stimuli/44.jpg,How much do you like this painting?,2,11,Tue Jul 09 2019 14:07:02 GMT+0200 (Mitteleuropäische Sommerzeit),1562674022061,1.1941166666666667,b1_exp,42
439,,434,98,hier bin ich ein experte,1562674093708,71,1,divers,Yes,NA,NA,NA,not at all,very much,images/stimuli/1.jpg,How much do you like this painting?,1,11,Tue Jul 09 2019 14:07:02 GMT+0200 (Mitteleuropäische Sommerzeit),1562674022061,1.1941166666666667,b1_exp,43
439,,2358,98,hier bin ich ein experte,1562674093708,71,9,divers,Yes,NA,NA,NA,not at all,very much,images/stimuli/9.jpg,How much do you like this painting?,6,11,Tue Jul 09 2019 14:07:02 GMT+0200 (Mitteleuropäische Sommerzeit),1562674022061,1.1941166666666667,b1_exp,44
439,,170,98,hier bin ich ein experte,1562674093708,71,52,divers,Yes,NA,NA,NA,not at all,very much,images/stimuli/52.jpg,How much do you like this painting?,3,11,Tue Jul 09 2019 14:07:02 GMT+0200 (Mitteleuropäische Sommerzeit),1562674022061,1.1941166666666667,b1_exp,45
439,,2441,98,hier bin ich ein experte,1562674093708,71,53,divers,Yes,NA,NA,NA,not at all,very much,images/stimuli/53.jpg,How much do you like this painting?,2,11,Tue Jul 09 2019 14:07:02 GMT+0200 (Mitteleuropäische Sommerzeit),1562674022061,1.1941166666666667,b1_exp,46
439,,295,98,hier bin ich ein experte,1562674093708,71,21,divers,Yes,NA,NA,NA,not at all,very much,images/stimuli/21.jpg,How much do you like this painting?,2,11,Tue Jul 09 2019 14:07:02 GMT+0200 (Mitteleuropäische Sommerzeit),1562674022061,1.1941166666666667,b1_exp,47
439,,2613,98,hier bin ich ein experte,1562674093708,71,31,divers,Yes,NA,NA,NA,not at all,very much,images/stimuli/31.jpg,How much do you like this painting?,7,11,Tue Jul 09 2019 14:07:02 GMT+0200 (Mitteleuropäische Sommerzeit),1562674022061,1.1941166666666667,b1_exp,48
439,,920,98,hier bin ich ein experte,1562674093708,71,26,divers,Yes,NA,NA,NA,not at all,very much,images/stimuli/26.jpg,How much do you like this painting?,4,11,Tue Jul 09 2019 14:07:02 GMT+0200 (Mitteleuropäische Sommerzeit),1562674022061,1.1941166666666667,b1_exp,49
439,,2871,98,hier bin ich ein experte,1562674093708,71,37,divers,Yes,NA,NA,NA,not at all,very much,images/stimuli/37.jpg,How much do you like this painting?,6,11,Tue Jul 09 2019 14:07:02 GMT+0200 (Mitteleuropäische Sommerzeit),1562674022061,1.1941166666666667,b1_exp,50
439,,111,98,hier bin ich ein experte,1562674093708,71,18,divers,Yes,NA,NA,NA,not at all,very much,images/stimuli/18.jpg,How much do you like this painting?,3,11,Tue Jul 09 2019 14:07:02 GMT+0200 (Mitteleuropäische Sommerzeit),1562674022061,1.1941166666666667,b1_exp,51
439,,1846,98,hier bin ich ein experte,1562674093708,71,40,divers,Yes,NA,NA,NA,not at all,very much,images/stimuli/40.jpg,How much do you like this painting?,2,11,Tue Jul 09 2019 14:07:02 GMT+0200 (Mitteleuropäische Sommerzeit),1562674022061,1.1941166666666667,b1_exp,52
439,,2017,98,hier bin ich ein experte,1562674093708,71,60,divers,Yes,NA,NA,NA,not at all,very much,images/stimuli/60.jpg,How much do you like this painting?,6,11,Tue Jul 09 2019 14:07:02 GMT+0200 (Mitteleuropäische Sommerzeit),1562674022061,1.1941166666666667,b1_exp,53
439,,2361,98,hier bin ich ein experte,1562674093708,71,55,divers,Yes,NA,NA,NA,not at all,very much,images/stimuli/55.jpg,How much do you like this painting?,5,11,Tue Jul 09 2019 14:07:02 GMT+0200 (Mitteleuropäische Sommerzeit),1562674022061,1.1941166666666667,b1_exp,54
439,,2058,98,hier bin ich ein experte,1562674093708,71,23,divers,Yes,NA,NA,NA,not at all,very much,images/stimuli/23.jpg,How much do you like this painting?,7,11,Tue Jul 09 2019 14:07:02 GMT+0200 (Mitteleuropäische Sommerzeit),1562674022061,1.1941166666666667,b1_exp,55
439,,261,98,hier bin ich ein experte,1562674093708,71,30,divers,Yes,NA,NA,NA,not at all,very much,images/stimuli/30.jpg,How much do you like this painting?,2,11,Tue Jul 09 2019 14:07:02 GMT+0200 (Mitteleuropäische Sommerzeit),1562674022061,1.1941166666666667,b1_exp,56
439,,730,98,hier bin ich ein experte,1562674093708,71,28,divers,Yes,NA,NA,NA,not at all,very much,images/stimuli/28.jpg,How much do you like this painting?,3,11,Tue Jul 09 2019 14:07:02 GMT+0200 (Mitteleuropäische Sommerzeit),1562674022061,1.1941166666666667,b1_exp,57
439,,1010,98,hier bin ich ein experte,1562674093708,71,2,divers,Yes,NA,NA,NA,not at all,very much,images/stimuli/2.jpg,How much do you like this painting?,5,11,Tue Jul 09 2019 14:07:02 GMT+0200 (Mitteleuropäische Sommerzeit),1562674022061,1.1941166666666667,b1_exp,58
439,,1318,98,hier bin ich ein experte,1562674093708,71,10,divers,Yes,NA,NA,NA,not at all,very much,images/stimuli/10.jpg,How much do you like this painting?,2,11,Tue Jul 09 2019 14:07:02 GMT+0200 (Mitteleuropäische Sommerzeit),1562674022061,1.1941166666666667,b1_exp,59
439,,2793,98,hier bin ich ein experte,1562674093708,71,59,divers,Yes,NA,NA,NA,not at all,very much,images/stimuli/59.jpg,How much do you like this painting?,4,11,Tue Jul 09 2019 14:07:02 GMT+0200 (Mitteleuropäische Sommerzeit),1562674022061,1.1941166666666667,b1_exp,60
439,,2165,98,hier bin ich ein experte,1562674093708,71,24,divers,Yes,NA,NA,NA,not at all,very much,images/stimuli/24.jpg,How well can you identify patterns in this painting?,1,11,Tue Jul 09 2019 14:07:02 GMT+0200 (Mitteleuropäische Sommerzeit),1562674022061,1.1941166666666667,b2_exp,1
439,,1041,98,hier bin ich ein experte,1562674093708,71,30,divers,Yes,NA,NA,NA,not at all,very much,images/stimuli/30.jpg,How well can you identify patterns in this painting?,3,11,Tue Jul 09 2019 14:07:02 GMT+0200 (Mitteleuropäische Sommerzeit),1562674022061,1.1941166666666667,b2_exp,2
439,,1206,98,hier bin ich ein experte,1562674093708,71,14,divers,Yes,NA,NA,NA,not at all,very much,images/stimuli/14.jpg,How well can you identify patterns in this painting?,4,11,Tue Jul 09 2019 14:07:02 GMT+0200 (Mitteleuropäische Sommerzeit),1562674022061,1.1941166666666667,b2_exp,3
439,,436,98,hier bin ich ein experte,1562674093708,71,38,divers,Yes,NA,NA,NA,not at all,very much,images/stimuli/38.jpg,How well can you identify patterns in this painting?,5,11,Tue Jul 09 2019 14:07:02 GMT+0200 (Mitteleuropäische Sommerzeit),1562674022061,1.1941166666666667,b2_exp,4
439,,1599,98,hier bin ich ein experte,1562674093708,71,57,divers,Yes,NA,NA,NA,not at all,very much,images/stimuli/57.jpg,How well can you identify patterns in this painting?,5,11,Tue Jul 09 2019 14:07:02 GMT+0200 (Mitteleuropäische Sommerzeit),1562674022061,1.1941166666666667,b2_exp,5
439,,1828,98,hier bin ich ein experte,1562674093708,71,55,divers,Yes,NA,NA,NA,not at all,very much,images/stimuli/55.jpg,How well can you identify patterns in this painting?,2,11,Tue Jul 09 2019 14:07:02 GMT+0200 (Mitteleuropäische Sommerzeit),1562674022061,1.1941166666666667,b2_exp,6
439,,2444,98,hier bin ich ein experte,1562674093708,71,28,divers,Yes,NA,NA,NA,not at all,very much,images/stimuli/28.jpg,How well can you identify patterns in this painting?,1,11,Tue Jul 09 2019 14:07:02 GMT+0200 (Mitteleuropäische Sommerzeit),1562674022061,1.1941166666666667,b2_exp,7
439,,1364,98,hier bin ich ein experte,1562674093708,71,26,divers,Yes,NA,NA,NA,not at all,very much,images/stimuli/26.jpg,How well can you identify patterns in this painting?,1,11,Tue Jul 09 2019 14:07:02 GMT+0200 (Mitteleuropäische Sommerzeit),1562674022061,1.1941166666666667,b2_exp,8
439,,1238,98,hier bin ich ein experte,1562674093708,71,58,divers,Yes,NA,NA,NA,not at all,very much,images/stimuli/58.jpg,How well can you identify patterns in this painting?,5,11,Tue Jul 09 2019 14:07:02 GMT+0200 (Mitteleuropäische Sommerzeit),1562674022061,1.1941166666666667,b2_exp,9
439,,1127,98,hier bin ich ein experte,1562674093708,71,21,divers,Yes,NA,NA,NA,not at all,very much,images/stimuli/21.jpg,How well can you identify patterns in this painting?,4,11,Tue Jul 09 2019 14:07:02 GMT+0200 (Mitteleuropäische Sommerzeit),1562674022061,1.1941166666666667,b2_exp,10
439,,1430,98,hier bin ich ein experte,1562674093708,71,17,divers,Yes,NA,NA,NA,not at all,very much,images/stimuli/17.jpg,How well can you identify patterns in this painting?,4,11,Tue Jul 09 2019 14:07:02 GMT+0200 (Mitteleuropäische Sommerzeit),1562674022061,1.1941166666666667,b2_exp,11
439,,891,98,hier bin ich ein experte,1562674093708,71,32,divers,Yes,NA,NA,NA,not at all,very much,images/stimuli/32.jpg,How well can you identify patterns in this painting?,1,11,Tue Jul 09 2019 14:07:02 GMT+0200 (Mitteleuropäische Sommerzeit),1562674022061,1.1941166666666667,b2_exp,12
439,,1084,98,hier bin ich ein experte,1562674093708,71,31,divers,Yes,NA,NA,NA,not at all,very much,images/stimuli/31.jpg,How well can you identify patterns in this painting?,7,11,Tue Jul 09 2019 14:07:02 GMT+0200 (Mitteleuropäische Sommerzeit),1562674022061,1.1941166666666667,b2_exp,13
439,,2729,98,hier bin ich ein experte,1562674093708,71,41,divers,Yes,NA,NA,NA,not at all,very much,images/stimuli/41.jpg,How well can you identify patterns in this painting?,7,11,Tue Jul 09 2019 14:07:02 GMT+0200 (Mitteleuropäische Sommerzeit),1562674022061,1.1941166666666667,b2_exp,14
439,,1338,98,hier bin ich ein experte,1562674093708,71,39,divers,Yes,NA,NA,NA,not at all,very much,images/stimuli/39.jpg,How well can you identify patterns in this painting?,2,11,Tue Jul 09 2019 14:07:02 GMT+0200 (Mitteleuropäische Sommerzeit),1562674022061,1.1941166666666667,b2_exp,15
439,,1623,98,hier bin ich ein experte,1562674093708,71,22,divers,Yes,NA,NA,NA,not at all,very much,images/stimuli/22.jpg,How well can you identify patterns in this painting?,1,11,Tue Jul 09 2019 14:07:02 GMT+0200 (Mitteleuropäische Sommerzeit),1562674022061,1.1941166666666667,b2_exp,16
439,,205,98,hier bin ich ein experte,1562674093708,71,34,divers,Yes,NA,NA,NA,not at all,very much,images/stimuli/34.jpg,How well can you identify patterns in this painting?,5,11,Tue Jul 09 2019 14:07:02 GMT+0200 (Mitteleuropäische Sommerzeit),1562674022061,1.1941166666666667,b2_exp,17
439,,1975,98,hier bin ich ein experte,1562674093708,71,18,divers,Yes,NA,NA,NA,not at all,very much,images/stimuli/18.jpg,How well can you identify patterns in this painting?,2,11,Tue Jul 09 2019 14:07:02 GMT+0200 (Mitteleuropäische Sommerzeit),1562674022061,1.1941166666666667,b2_exp,18
439,,2922,98,hier bin ich ein experte,1562674093708,71,15,divers,Yes,NA,NA,NA,not at all,very much,images/stimuli/15.jpg,How well can you identify patterns in this painting?,6,11,Tue Jul 09 2019 14:07:02 GMT+0200 (Mitteleuropäische Sommerzeit),1562674022061,1.1941166666666667,b2_exp,19
439,,1867,98,hier bin ich ein experte,1562674093708,71,4,divers,Yes,NA,NA,NA,not at all,very much,images/stimuli/4.jpg,How well can you identify patterns in this painting?,4,11,Tue Jul 09 2019 14:07:02 GMT+0200 (Mitteleuropäische Sommerzeit),1562674022061,1.1941166666666667,b2_exp,20
439,,2848,98,hier bin ich ein experte,1562674093708,71,42,divers,Yes,NA,NA,NA,not at all,very much,images/stimuli/42.jpg,How well can you identify patterns in this painting?,1,11,Tue Jul 09 2019 14:07:02 GMT+0200 (Mitteleuropäische Sommerzeit),1562674022061,1.1941166666666667,b2_exp,21
439,,1393,98,hier bin ich ein experte,1562674093708,71,47,divers,Yes,NA,NA,NA,not at all,very much,images/stimuli/47.jpg,How well can you identify patterns in this painting?,2,11,Tue Jul 09 2019 14:07:02 GMT+0200 (Mitteleuropäische Sommerzeit),1562674022061,1.1941166666666667,b2_exp,22
439,,1558,98,hier bin ich ein experte,1562674093708,71,48,divers,Yes,NA,NA,NA,not at all,very much,images/stimuli/48.jpg,How well can you identify patterns in this painting?,1,11,Tue Jul 09 2019 14:07:02 GMT+0200 (Mitteleuropäische Sommerzeit),1562674022061,1.1941166666666667,b2_exp,23
439,,451,98,hier bin ich ein experte,1562674093708,71,54,divers,Yes,NA,NA,NA,not at all,very much,images/stimuli/54.jpg,How well can you identify patterns in this painting?,1,11,Tue Jul 09 2019 14:07:02 GMT+0200 (Mitteleuropäische Sommerzeit),1562674022061,1.1941166666666667,b2_exp,24
439,,1406,98,hier bin ich ein experte,1562674093708,71,12,divers,Yes,NA,NA,NA,not at all,very much,images/stimuli/12.jpg,How well can you identify patterns in this painting?,1,11,Tue Jul 09 2019 14:07:02 GMT+0200 (Mitteleuropäische Sommerzeit),1562674022061,1.1941166666666667,b2_exp,25
439,,1233,98,hier bin ich ein experte,1562674093708,71,9,divers,Yes,NA,NA,NA,not at all,very much,images/stimuli/9.jpg,How well can you identify patterns in this painting?,4,11,Tue Jul 09 2019 14:07:02 GMT+0200 (Mitteleuropäische Sommerzeit),1562674022061,1.1941166666666667,b2_exp,26
439,,2077,98,hier bin ich ein experte,1562674093708,71,40,divers,Yes,NA,NA,NA,not at all,very much,images/stimuli/40.jpg,How well can you identify patterns in this painting?,2,11,Tue Jul 09 2019 14:07:02 GMT+0200 (Mitteleuropäische Sommerzeit),1562674022061,1.1941166666666667,b2_exp,27
439,,1847,98,hier bin ich ein experte,1562674093708,71,36,divers,Yes,NA,NA,NA,not at all,very much,images/stimuli/36.jpg,How well can you identify patterns in this painting?,5,11,Tue Jul 09 2019 14:07:02 GMT+0200 (Mitteleuropäische Sommerzeit),1562674022061,1.1941166666666667,b2_exp,28
439,,521,98,hier bin ich ein experte,1562674093708,71,3,divers,Yes,NA,NA,NA,not at all,very much,images/stimuli/3.jpg,How well can you identify patterns in this painting?,3,11,Tue Jul 09 2019 14:07:02 GMT+0200 (Mitteleuropäische Sommerzeit),1562674022061,1.1941166666666667,b2_exp,29
439,,1389,98,hier bin ich ein experte,1562674093708,71,33,divers,Yes,NA,NA,NA,not at all,very much,images/stimuli/33.jpg,How well can you identify patterns in this painting?,3,11,Tue Jul 09 2019 14:07:02 GMT+0200 (Mitteleuropäische Sommerzeit),1562674022061,1.1941166666666667,b2_exp,30
439,,2321,98,hier bin ich ein experte,1562674093708,71,35,divers,Yes,NA,NA,NA,not at all,very much,images/stimuli/35.jpg,How well can you identify patterns in this painting?,1,11,Tue Jul 09 2019 14:07:02 GMT+0200 (Mitteleuropäische Sommerzeit),1562674022061,1.1941166666666667,b2_exp,31
439,,2168,98,hier bin ich ein experte,1562674093708,71,29,divers,Yes,NA,NA,NA,not at all,very much,images/stimuli/29.jpg,How well can you identify patterns in this painting?,5,11,Tue Jul 09 2019 14:07:02 GMT+0200 (Mitteleuropäische Sommerzeit),1562674022061,1.1941166666666667,b2_exp,32
439,,2706,98,hier bin ich ein experte,1562674093708,71,5,divers,Yes,NA,NA,NA,not at all,very much,images/stimuli/5.jpg,How well can you identify patterns in this painting?,3,11,Tue Jul 09 2019 14:07:02 GMT+0200 (Mitteleuropäische Sommerzeit),1562674022061,1.1941166666666667,b2_exp,33
439,,1731,98,hier bin ich ein experte,1562674093708,71,53,divers,Yes,NA,NA,NA,not at all,very much,images/stimuli/53.jpg,How well can you identify patterns in this painting?,6,11,Tue Jul 09 2019 14:07:02 GMT+0200 (Mitteleuropäische Sommerzeit),1562674022061,1.1941166666666667,b2_exp,34
439,,2701,98,hier bin ich ein experte,1562674093708,71,44,divers,Yes,NA,NA,NA,not at all,very much,images/stimuli/44.jpg,How well can you identify patterns in this painting?,6,11,Tue Jul 09 2019 14:07:02 GMT+0200 (Mitteleuropäische Sommerzeit),1562674022061,1.1941166666666667,b2_exp,35
439,,1428,98,hier bin ich ein experte,1562674093708,71,27,divers,Yes,NA,NA,NA,not at all,very much,images/stimuli/27.jpg,How well can you identify patterns in this painting?,7,11,Tue Jul 09 2019 14:07:02 GMT+0200 (Mitteleuropäische Sommerzeit),1562674022061,1.1941166666666667,b2_exp,36
439,,774,98,hier bin ich ein experte,1562674093708,71,45,divers,Yes,NA,NA,NA,not at all,very much,images/stimuli/45.jpg,How well can you identify patterns in this painting?,7,11,Tue Jul 09 2019 14:07:02 GMT+0200 (Mitteleuropäische Sommerzeit),1562674022061,1.1941166666666667,b2_exp,37
439,,2375,98,hier bin ich ein experte,1562674093708,71,23,divers,Yes,NA,NA,NA,not at all,very much,images/stimuli/23.jpg,How well can you identify patterns in this painting?,5,11,Tue Jul 09 2019 14:07:02 GMT+0200 (Mitteleuropäische Sommerzeit),1562674022061,1.1941166666666667,b2_exp,38
439,,182,98,hier bin ich ein experte,1562674093708,71,1,divers,Yes,NA,NA,NA,not at all,very much,images/stimuli/1.jpg,How well can you identify patterns in this painting?,4,11,Tue Jul 09 2019 14:07:02 GMT+0200 (Mitteleuropäische Sommerzeit),1562674022061,1.1941166666666667,b2_exp,39
439,,2187,98,hier bin ich ein experte,1562674093708,71,51,divers,Yes,NA,NA,NA,not at all,very much,images/stimuli/51.jpg,How well can you identify patterns in this painting?,2,11,Tue Jul 09 2019 14:07:02 GMT+0200 (Mitteleuropäische Sommerzeit),1562674022061,1.1941166666666667,b2_exp,40
439,,1462,98,hier bin ich ein experte,1562674093708,71,6,divers,Yes,NA,NA,NA,not at all,very much,images/stimuli/6.jpg,How well can you identify patterns in this painting?,2,11,Tue Jul 09 2019 14:07:02 GMT+0200 (Mitteleuropäische Sommerzeit),1562674022061,1.1941166666666667,b2_exp,41
439,,2662,98,hier bin ich ein experte,1562674093708,71,46,divers,Yes,NA,NA,NA,not at all,very much,images/stimuli/46.jpg,How well can you identify patterns in this painting?,7,11,Tue Jul 09 2019 14:07:02 GMT+0200 (Mitteleuropäische Sommerzeit),1562674022061,1.1941166666666667,b2_exp,42
439,,1291,98,hier bin ich ein experte,1562674093708,71,19,divers,Yes,NA,NA,NA,not at all,very much,images/stimuli/19.jpg,How well can you identify patterns in this painting?,3,11,Tue Jul 09 2019 14:07:02 GMT+0200 (Mitteleuropäische Sommerzeit),1562674022061,1.1941166666666667,b2_exp,43
439,,2441,98,hier bin ich ein experte,1562674093708,71,43,divers,Yes,NA,NA,NA,not at all,very much,images/stimuli/43.jpg,How well can you identify patterns in this painting?,3,11,Tue Jul 09 2019 14:07:02 GMT+0200 (Mitteleuropäische Sommerzeit),1562674022061,1.1941166666666667,b2_exp,44
439,,1305,98,hier bin ich ein experte,1562674093708,71,25,divers,Yes,NA,NA,NA,not at all,very much,images/stimuli/25.jpg,How well can you identify patterns in this painting?,3,11,Tue Jul 09 2019 14:07:02 GMT+0200 (Mitteleuropäische Sommerzeit),1562674022061,1.1941166666666667,b2_exp,45
439,,2361,98,hier bin ich ein experte,1562674093708,71,50,divers,Yes,NA,NA,NA,not at all,very much,images/stimuli/50.jpg,How well can you identify patterns in this painting?,3,11,Tue Jul 09 2019 14:07:02 GMT+0200 (Mitteleuropäische Sommerzeit),1562674022061,1.1941166666666667,b2_exp,46
439,,229,98,hier bin ich ein experte,1562674093708,71,13,divers,Yes,NA,NA,NA,not at all,very much,images/stimuli/13.jpg,How well can you identify patterns in this painting?,5,11,Tue Jul 09 2019 14:07:02 GMT+0200 (Mitteleuropäische Sommerzeit),1562674022061,1.1941166666666667,b2_exp,47
439,,2273,98,hier bin ich ein experte,1562674093708,71,8,divers,Yes,NA,NA,NA,not at all,very much,images/stimuli/8.jpg,How well can you identify patterns in this painting?,6,11,Tue Jul 09 2019 14:07:02 GMT+0200 (Mitteleuropäische Sommerzeit),1562674022061,1.1941166666666667,b2_exp,48
439,,2763,98,hier bin ich ein experte,1562674093708,71,60,divers,Yes,NA,NA,NA,not at all,very much,images/stimuli/60.jpg,How well can you identify patterns in this painting?,3,11,Tue Jul 09 2019 14:07:02 GMT+0200 (Mitteleuropäische Sommerzeit),1562674022061,1.1941166666666667,b2_exp,49
439,,2949,98,hier bin ich ein experte,1562674093708,71,56,divers,Yes,NA,NA,NA,not at all,very much,images/stimuli/56.jpg,How well can you identify patterns in this painting?,1,11,Tue Jul 09 2019 14:07:02 GMT+0200 (Mitteleuropäische Sommerzeit),1562674022061,1.1941166666666667,b2_exp,50
439,,979,98,hier bin ich ein experte,1562674093708,71,37,divers,Yes,NA,NA,NA,not at all,very much,images/stimuli/37.jpg,How well can you identify patterns in this painting?,2,11,Tue Jul 09 2019 14:07:02 GMT+0200 (Mitteleuropäische Sommerzeit),1562674022061,1.1941166666666667,b2_exp,51
439,,2768,98,hier bin ich ein experte,1562674093708,71,49,divers,Yes,NA,NA,NA,not at all,very much,images/stimuli/49.jpg,How well can you identify patterns in this painting?,4,11,Tue Jul 09 2019 14:07:02 GMT+0200 (Mitteleuropäische Sommerzeit),1562674022061,1.1941166666666667,b2_exp,52
439,,1602,98,hier bin ich ein experte,1562674093708,71,2,divers,Yes,NA,NA,NA,not at all,very much,images/stimuli/2.jpg,How well can you identify patterns in this painting?,5,11,Tue Jul 09 2019 14:07:02 GMT+0200 (Mitteleuropäische Sommerzeit),1562674022061,1.1941166666666667,b2_exp,53
439,,2023,98,hier bin ich ein experte,1562674093708,71,59,divers,Yes,NA,NA,NA,not at all,very much,images/stimuli/59.jpg,How well can you identify patterns in this painting?,7,11,Tue Jul 09 2019 14:07:02 GMT+0200 (Mitteleuropäische Sommerzeit),1562674022061,1.1941166666666667,b2_exp,54
439,,356,98,hier bin ich ein experte,1562674093708,71,20,divers,Yes,NA,NA,NA,not at all,very much,images/stimuli/20.jpg,How well can you identify patterns in this painting?,6,11,Tue Jul 09 2019 14:07:02 GMT+0200 (Mitteleuropäische Sommerzeit),1562674022061,1.1941166666666667,b2_exp,55
439,,1196,98,hier bin ich ein experte,1562674093708,71,16,divers,Yes,NA,NA,NA,not at all,very much,images/stimuli/16.jpg,How well can you identify patterns in this painting?,7,11,Tue Jul 09 2019 14:07:02 GMT+0200 (Mitteleuropäische Sommerzeit),1562674022061,1.1941166666666667,b2_exp,56
439,,972,98,hier bin ich ein experte,1562674093708,71,10,divers,Yes,NA,NA,NA,not at all,very much,images/stimuli/10.jpg,How well can you identify patterns in this painting?,4,11,Tue Jul 09 2019 14:07:02 GMT+0200 (Mitteleuropäische Sommerzeit),1562674022061,1.1941166666666667,b2_exp,57
439,,814,98,hier bin ich ein experte,1562674093708,71,52,divers,Yes,NA,NA,NA,not at all,very much,images/stimuli/52.jpg,How well can you identify patterns in this painting?,2,11,Tue Jul 09 2019 14:07:02 GMT+0200 (Mitteleuropäische Sommerzeit),1562674022061,1.1941166666666667,b2_exp,58
439,,1194,98,hier bin ich ein experte,1562674093708,71,7,divers,Yes,NA,NA,NA,not at all,very much,images/stimuli/7.jpg,How well can you identify patterns in this painting?,2,11,Tue Jul 09 2019 14:07:02 GMT+0200 (Mitteleuropäische Sommerzeit),1562674022061,1.1941166666666667,b2_exp,59
439,,2880,98,hier bin ich ein experte,1562674093708,71,11,divers,Yes,NA,NA,NA,not at all,very much,images/stimuli/11.jpg,How well can you identify patterns in this painting?,6,11,Tue Jul 09 2019 14:07:02 GMT+0200 (Mitteleuropäische Sommerzeit),1562674022061,1.1941166666666667,b2_exp,60
438,,2387,12,hier bin ich kein experte,1562673964578,71,NA,female,No,0,NA,NA,NA,NA,images/snellen/snellen.png,Which row is the last one where you can recognize <strong>all letters</strong> completely? Only type in the number of this row (between 1 and 11): ,1,7,Tue Jul 09 2019 14:05:06 GMT+0200 (Mitteleuropäische Sommerzeit),1562673906705,0.96455,test_snellen,1
438,,1297,12,hier bin ich kein experte,1562673964578,71,NA,female,No,NA,Yes,No,NA,NA,NA,Do you consider yourself an <strong>expert in Cubist art</strong> or were ever engaged in any kind of Cubist art education?,6,7,Tue Jul 09 2019 14:05:06 GMT+0200 (Mitteleuropäische Sommerzeit),1562673906705,0.96455,b0_expert,1
438,,2033,12,hier bin ich kein experte,1562673964578,71,58,female,No,NA,NA,NA,not at all,very much,images/stimuli/58.jpg,How much do you like this painting?,1,7,Tue Jul 09 2019 14:05:06 GMT+0200 (Mitteleuropäische Sommerzeit),1562673906705,0.96455,b1_exp,1
438,,1602,12,hier bin ich kein experte,1562673964578,71,23,female,No,NA,NA,NA,not at all,very much,images/stimuli/23.jpg,How much do you like this painting?,7,7,Tue Jul 09 2019 14:05:06 GMT+0200 (Mitteleuropäische Sommerzeit),1562673906705,0.96455,b1_exp,2
438,,797,12,hier bin ich kein experte,1562673964578,71,10,female,No,NA,NA,NA,not at all,very much,images/stimuli/10.jpg,How much do you like this painting?,2,7,Tue Jul 09 2019 14:05:06 GMT+0200 (Mitteleuropäische Sommerzeit),1562673906705,0.96455,b1_exp,3
438,,1851,12,hier bin ich kein experte,1562673964578,71,9,female,No,NA,NA,NA,not at all,very much,images/stimuli/9.jpg,How much do you like this painting?,7,7,Tue Jul 09 2019 14:05:06 GMT+0200 (Mitteleuropäische Sommerzeit),1562673906705,0.96455,b1_exp,4
438,,2772,12,hier bin ich kein experte,1562673964578,71,13,female,No,NA,NA,NA,not at all,very much,images/stimuli/13.jpg,How much do you like this painting?,2,7,Tue Jul 09 2019 14:05:06 GMT+0200 (Mitteleuropäische Sommerzeit),1562673906705,0.96455,b1_exp,5
438,,1273,12,hier bin ich kein experte,1562673964578,71,19,female,No,NA,NA,NA,not at all,very much,images/stimuli/19.jpg,How much do you like this painting?,3,7,Tue Jul 09 2019 14:05:06 GMT+0200 (Mitteleuropäische Sommerzeit),1562673906705,0.96455,b1_exp,6
438,,281,12,hier bin ich kein experte,1562673964578,71,20,female,No,NA,NA,NA,not at all,very much,images/stimuli/20.jpg,How much do you like this painting?,3,7,Tue Jul 09 2019 14:05:06 GMT+0200 (Mitteleuropäische Sommerzeit),1562673906705,0.96455,b1_exp,7
438,,1032,12,hier bin ich kein experte,1562673964578,71,4,female,No,NA,NA,NA,not at all,very much,images/stimuli/4.jpg,How much do you like this painting?,5,7,Tue Jul 09 2019 14:05:06 GMT+0200 (Mitteleuropäische Sommerzeit),1562673906705,0.96455,b1_exp,8
438,,2556,12,hier bin ich kein experte,1562673964578,71,11,female,No,NA,NA,NA,not at all,very much,images/stimuli/11.jpg,How much do you like this painting?,3,7,Tue Jul 09 2019 14:05:06 GMT+0200 (Mitteleuropäische Sommerzeit),1562673906705,0.96455,b1_exp,9
438,,2577,12,hier bin ich kein experte,1562673964578,71,35,female,No,NA,NA,NA,not at all,very much,images/stimuli/35.jpg,How much do you like this painting?,1,7,Tue Jul 09 2019 14:05:06 GMT+0200 (Mitteleuropäische Sommerzeit),1562673906705,0.96455,b1_exp,10
438,,1642,12,hier bin ich kein experte,1562673964578,71,2,female,No,NA,NA,NA,not at all,very much,images/stimuli/2.jpg,How much do you like this painting?,2,7,Tue Jul 09 2019 14:05:06 GMT+0200 (Mitteleuropäische Sommerzeit),1562673906705,0.96455,b1_exp,11
438,,1540,12,hier bin ich kein experte,1562673964578,71,50,female,No,NA,NA,NA,not at all,very much,images/stimuli/50.jpg,How much do you like this painting?,3,7,Tue Jul 09 2019 14:05:06 GMT+0200 (Mitteleuropäische Sommerzeit),1562673906705,0.96455,b1_exp,12
438,,2276,12,hier bin ich kein experte,1562673964578,71,16,female,No,NA,NA,NA,not at all,very much,images/stimuli/16.jpg,How much do you like this painting?,5,7,Tue Jul 09 2019 14:05:06 GMT+0200 (Mitteleuropäische Sommerzeit),1562673906705,0.96455,b1_exp,13
438,,2587,12,hier bin ich kein experte,1562673964578,71,26,female,No,NA,NA,NA,not at all,very much,images/stimuli/26.jpg,How much do you like this painting?,7,7,Tue Jul 09 2019 14:05:06 GMT+0200 (Mitteleuropäische Sommerzeit),1562673906705,0.96455,b1_exp,14
438,,1160,12,hier bin ich kein experte,1562673964578,71,17,female,No,NA,NA,NA,not at all,very much,images/stimuli/17.jpg,How much do you like this painting?,6,7,Tue Jul 09 2019 14:05:06 GMT+0200 (Mitteleuropäische Sommerzeit),1562673906705,0.96455,b1_exp,15
438,,1787,12,hier bin ich kein experte,1562673964578,71,31,female,No,NA,NA,NA,not at all,very much,images/stimuli/31.jpg,How much do you like this painting?,5,7,Tue Jul 09 2019 14:05:06 GMT+0200 (Mitteleuropäische Sommerzeit),1562673906705,0.96455,b1_exp,16
438,,1630,12,hier bin ich kein experte,1562673964578,71,40,female,No,NA,NA,NA,not at all,very much,images/stimuli/40.jpg,How much do you like this painting?,7,7,Tue Jul 09 2019 14:05:06 GMT+0200 (Mitteleuropäische Sommerzeit),1562673906705,0.96455,b1_exp,17
438,,1791,12,hier bin ich kein experte,1562673964578,71,18,female,No,NA,NA,NA,not at all,very much,images/stimuli/18.jpg,How much do you like this painting?,5,7,Tue Jul 09 2019 14:05:06 GMT+0200 (Mitteleuropäische Sommerzeit),1562673906705,0.96455,b1_exp,18
438,,1863,12,hier bin ich kein experte,1562673964578,71,6,female,No,NA,NA,NA,not at all,very much,images/stimuli/6.jpg,How much do you like this painting?,2,7,Tue Jul 09 2019 14:05:06 GMT+0200 (Mitteleuropäische Sommerzeit),1562673906705,0.96455,b1_exp,19
438,,708,12,hier bin ich kein experte,1562673964578,71,47,female,No,NA,NA,NA,not at all,very much,images/stimuli/47.jpg,How much do you like this painting?,7,7,Tue Jul 09 2019 14:05:06 GMT+0200 (Mitteleuropäische Sommerzeit),1562673906705,0.96455,b1_exp,20
438,,2185,12,hier bin ich kein experte,1562673964578,71,32,female,No,NA,NA,NA,not at all,very much,images/stimuli/32.jpg,How much do you like this painting?,7,7,Tue Jul 09 2019 14:05:06 GMT+0200 (Mitteleuropäische Sommerzeit),1562673906705,0.96455,b1_exp,21
438,,828,12,hier bin ich kein experte,1562673964578,71,54,female,No,NA,NA,NA,not at all,very much,images/stimuli/54.jpg,How much do you like this painting?,2,7,Tue Jul 09 2019 14:05:06 GMT+0200 (Mitteleuropäische Sommerzeit),1562673906705,0.96455,b1_exp,22
438,,2455,12,hier bin ich kein experte,1562673964578,71,38,female,No,NA,NA,NA,not at all,very much,images/stimuli/38.jpg,How much do you like this painting?,3,7,Tue Jul 09 2019 14:05:06 GMT+0200 (Mitteleuropäische Sommerzeit),1562673906705,0.96455,b1_exp,23
438,,2094,12,hier bin ich kein experte,1562673964578,71,1,female,No,NA,NA,NA,not at all,very much,images/stimuli/1.jpg,How much do you like this painting?,7,7,Tue Jul 09 2019 14:05:06 GMT+0200 (Mitteleuropäische Sommerzeit),1562673906705,0.96455,b1_exp,24
438,,1105,12,hier bin ich kein experte,1562673964578,71,34,female,No,NA,NA,NA,not at all,very much,images/stimuli/34.jpg,How much do you like this painting?,6,7,Tue Jul 09 2019 14:05:06 GMT+0200 (Mitteleuropäische Sommerzeit),1562673906705,0.96455,b1_exp,25
438,,2654,12,hier bin ich kein experte,1562673964578,71,39,female,No,NA,NA,NA,not at all,very much,images/stimuli/39.jpg,How much do you like this painting?,5,7,Tue Jul 09 2019 14:05:06 GMT+0200 (Mitteleuropäische Sommerzeit),1562673906705,0.96455,b1_exp,26
438,,2217,12,hier bin ich kein experte,1562673964578,71,24,female,No,NA,NA,NA,not at all,very much,images/stimuli/24.jpg,How much do you like this painting?,2,7,Tue Jul 09 2019 14:05:06 GMT+0200 (Mitteleuropäische Sommerzeit),1562673906705,0.96455,b1_exp,27
438,,263,12,hier bin ich kein experte,1562673964578,71,55,female,No,NA,NA,NA,not at all,very much,images/stimuli/55.jpg,How much do you like this painting?,5,7,Tue Jul 09 2019 14:05:06 GMT+0200 (Mitteleuropäische Sommerzeit),1562673906705,0.96455,b1_exp,28
438,,2362,12,hier bin ich kein experte,1562673964578,71,60,female,No,NA,NA,NA,not at all,very much,images/stimuli/60.jpg,How much do you like this painting?,6,7,Tue Jul 09 2019 14:05:06 GMT+0200 (Mitteleuropäische Sommerzeit),1562673906705,0.96455,b1_exp,29
438,,1661,12,hier bin ich kein experte,1562673964578,71,42,female,No,NA,NA,NA,not at all,very much,images/stimuli/42.jpg,How much do you like this painting?,3,7,Tue Jul 09 2019 14:05:06 GMT+0200 (Mitteleuropäische Sommerzeit),1562673906705,0.96455,b1_exp,30
438,,731,12,hier bin ich kein experte,1562673964578,71,45,female,No,NA,NA,NA,not at all,very much,images/stimuli/45.jpg,How much do you like this painting?,5,7,Tue Jul 09 2019 14:05:06 GMT+0200 (Mitteleuropäische Sommerzeit),1562673906705,0.96455,b1_exp,31
438,,841,12,hier bin ich kein experte,1562673964578,71,48,female,No,NA,NA,NA,not at all,very much,images/stimuli/48.jpg,How much do you like this painting?,1,7,Tue Jul 09 2019 14:05:06 GMT+0200 (Mitteleuropäische Sommerzeit),1562673906705,0.96455,b1_exp,32
438,,1329,12,hier bin ich kein experte,1562673964578,71,56,female,No,NA,NA,NA,not at all,very much,images/stimuli/56.jpg,How much do you like this painting?,7,7,Tue Jul 09 2019 14:05:06 GMT+0200 (Mitteleuropäische Sommerzeit),1562673906705,0.96455,b1_exp,33
438,,2636,12,hier bin ich kein experte,1562673964578,71,52,female,No,NA,NA,NA,not at all,very much,images/stimuli/52.jpg,How much do you like this painting?,4,7,Tue Jul 09 2019 14:05:06 GMT+0200 (Mitteleuropäische Sommerzeit),1562673906705,0.96455,b1_exp,34
438,,1653,12,hier bin ich kein experte,1562673964578,71,14,female,No,NA,NA,NA,not at all,very much,images/stimuli/14.jpg,How much do you like this painting?,5,7,Tue Jul 09 2019 14:05:06 GMT+0200 (Mitteleuropäische Sommerzeit),1562673906705,0.96455,b1_exp,35
438,,302,12,hier bin ich kein experte,1562673964578,71,7,female,No,NA,NA,NA,not at all,very much,images/stimuli/7.jpg,How much do you like this painting?,5,7,Tue Jul 09 2019 14:05:06 GMT+0200 (Mitteleuropäische Sommerzeit),1562673906705,0.96455,b1_exp,36
438,,961,12,hier bin ich kein experte,1562673964578,71,46,female,No,NA,NA,NA,not at all,very much,images/stimuli/46.jpg,How much do you like this painting?,6,7,Tue Jul 09 2019 14:05:06 GMT+0200 (Mitteleuropäische Sommerzeit),1562673906705,0.96455,b1_exp,37
438,,1209,12,hier bin ich kein experte,1562673964578,71,59,female,No,NA,NA,NA,not at all,very much,images/stimuli/59.jpg,How much do you like this painting?,6,7,Tue Jul 09 2019 14:05:06 GMT+0200 (Mitteleuropäische Sommerzeit),1562673906705,0.96455,b1_exp,38
438,,1836,12,hier bin ich kein experte,1562673964578,71,27,female,No,NA,NA,NA,not at all,very much,images/stimuli/27.jpg,How much do you like this painting?,4,7,Tue Jul 09 2019 14:05:06 GMT+0200 (Mitteleuropäische Sommerzeit),1562673906705,0.96455,b1_exp,39
438,,2844,12,hier bin ich kein experte,1562673964578,71,5,female,No,NA,NA,NA,not at all,very much,images/stimuli/5.jpg,How much do you like this painting?,1,7,Tue Jul 09 2019 14:05:06 GMT+0200 (Mitteleuropäische Sommerzeit),1562673906705,0.96455,b1_exp,40
438,,453,12,hier bin ich kein experte,1562673964578,71,29,female,No,NA,NA,NA,not at all,very much,images/stimuli/29.jpg,How much do you like this painting?,7,7,Tue Jul 09 2019 14:05:06 GMT+0200 (Mitteleuropäische Sommerzeit),1562673906705,0.96455,b1_exp,41
438,,268,12,hier bin ich kein experte,1562673964578,71,36,female,No,NA,NA,NA,not at all,very much,images/stimuli/36.jpg,How much do you like this painting?,4,7,Tue Jul 09 2019 14:05:06 GMT+0200 (Mitteleuropäische Sommerzeit),1562673906705,0.96455,b1_exp,42
438,,2977,12,hier bin ich kein experte,1562673964578,71,21,female,No,NA,NA,NA,not at all,very much,images/stimuli/21.jpg,How much do you like this painting?,5,7,Tue Jul 09 2019 14:05:06 GMT+0200 (Mitteleuropäische Sommerzeit),1562673906705,0.96455,b1_exp,43
438,,2687,12,hier bin ich kein experte,1562673964578,71,33,female,No,NA,NA,NA,not at all,very much,images/stimuli/33.jpg,How much do you like this painting?,4,7,Tue Jul 09 2019 14:05:06 GMT+0200 (Mitteleuropäische Sommerzeit),1562673906705,0.96455,b1_exp,44
438,,2349,12,hier bin ich kein experte,1562673964578,71,8,female,No,NA,NA,NA,not at all,very much,images/stimuli/8.jpg,How much do you like this painting?,7,7,Tue Jul 09 2019 14:05:06 GMT+0200 (Mitteleuropäische Sommerzeit),1562673906705,0.96455,b1_exp,45
438,,1006,12,hier bin ich kein experte,1562673964578,71,43,female,No,NA,NA,NA,not at all,very much,images/stimuli/43.jpg,How much do you like this painting?,6,7,Tue Jul 09 2019 14:05:06 GMT+0200 (Mitteleuropäische Sommerzeit),1562673906705,0.96455,b1_exp,46
438,,1949,12,hier bin ich kein experte,1562673964578,71,30,female,No,NA,NA,NA,not at all,very much,images/stimuli/30.jpg,How much do you like this painting?,4,7,Tue Jul 09 2019 14:05:06 GMT+0200 (Mitteleuropäische Sommerzeit),1562673906705,0.96455,b1_exp,47
438,,1367,12,hier bin ich kein experte,1562673964578,71,28,female,No,NA,NA,NA,not at all,very much,images/stimuli/28.jpg,How much do you like this painting?,3,7,Tue Jul 09 2019 14:05:06 GMT+0200 (Mitteleuropäische Sommerzeit),1562673906705,0.96455,b1_exp,48
438,,2430,12,hier bin ich kein experte,1562673964578,71,53,female,No,NA,NA,NA,not at all,very much,images/stimuli/53.jpg,How much do you like this painting?,5,7,Tue Jul 09 2019 14:05:06 GMT+0200 (Mitteleuropäische Sommerzeit),1562673906705,0.96455,b1_exp,49
438,,1070,12,hier bin ich kein experte,1562673964578,71,51,female,No,NA,NA,NA,not at all,very much,images/stimuli/51.jpg,How much do you like this painting?,3,7,Tue Jul 09 2019 14:05:06 GMT+0200 (Mitteleuropäische Sommerzeit),1562673906705,0.96455,b1_exp,50
438,,151,12,hier bin ich kein experte,1562673964578,71,12,female,No,NA,NA,NA,not at all,very much,images/stimuli/12.jpg,How much do you like this painting?,1,7,Tue Jul 09 2019 14:05:06 GMT+0200 (Mitteleuropäische Sommerzeit),1562673906705,0.96455,b1_exp,51
438,,2741,12,hier bin ich kein experte,1562673964578,71,49,female,No,NA,NA,NA,not at all,very much,images/stimuli/49.jpg,How much do you like this painting?,6,7,Tue Jul 09 2019 14:05:06 GMT+0200 (Mitteleuropäische Sommerzeit),1562673906705,0.96455,b1_exp,52
438,,1409,12,hier bin ich kein experte,1562673964578,71,41,female,No,NA,NA,NA,not at all,very much,images/stimuli/41.jpg,How much do you like this painting?,7,7,Tue Jul 09 2019 14:05:06 GMT+0200 (Mitteleuropäische Sommerzeit),1562673906705,0.96455,b1_exp,53
438,,1992,12,hier bin ich kein experte,1562673964578,71,22,female,No,NA,NA,NA,not at all,very much,images/stimuli/22.jpg,How much do you like this painting?,6,7,Tue Jul 09 2019 14:05:06 GMT+0200 (Mitteleuropäische Sommerzeit),1562673906705,0.96455,b1_exp,54
438,,262,12,hier bin ich kein experte,1562673964578,71,25,female,No,NA,NA,NA,not at all,very much,images/stimuli/25.jpg,How much do you like this painting?,4,7,Tue Jul 09 2019 14:05:06 GMT+0200 (Mitteleuropäische Sommerzeit),1562673906705,0.96455,b1_exp,55
438,,1216,12,hier bin ich kein experte,1562673964578,71,57,female,No,NA,NA,NA,not at all,very much,images/stimuli/57.jpg,How much do you like this painting?,7,7,Tue Jul 09 2019 14:05:06 GMT+0200 (Mitteleuropäische Sommerzeit),1562673906705,0.96455,b1_exp,56
438,,2040,12,hier bin ich kein experte,1562673964578,71,37,female,No,NA,NA,NA,not at all,very much,images/stimuli/37.jpg,How much do you like this painting?,3,7,Tue Jul 09 2019 14:05:06 GMT+0200 (Mitteleuropäische Sommerzeit),1562673906705,0.96455,b1_exp,57
438,,2393,12,hier bin ich kein experte,1562673964578,71,15,female,No,NA,NA,NA,not at all,very much,images/stimuli/15.jpg,How much do you like this painting?,4,7,Tue Jul 09 2019 14:05:06 GMT+0200 (Mitteleuropäische Sommerzeit),1562673906705,0.96455,b1_exp,58
438,,2969,12,hier bin ich kein experte,1562673964578,71,44,female,No,NA,NA,NA,not at all,very much,images/stimuli/44.jpg,How much do you like this painting?,1,7,Tue Jul 09 2019 14:05:06 GMT+0200 (Mitteleuropäische Sommerzeit),1562673906705,0.96455,b1_exp,59
438,,1928,12,hier bin ich kein experte,1562673964578,71,3,female,No,NA,NA,NA,not at all,very much,images/stimuli/3.jpg,How much do you like this painting?,6,7,Tue Jul 09 2019 14:05:06 GMT+0200 (Mitteleuropäische Sommerzeit),1562673906705,0.96455,b1_exp,60
438,,369,12,hier bin ich kein experte,1562673964578,71,18,female,No,NA,NA,NA,not at all,very much,images/stimuli/18.jpg,How well can you identify patterns in this painting?,6,7,Tue Jul 09 2019 14:05:06 GMT+0200 (Mitteleuropäische Sommerzeit),1562673906705,0.96455,b2_exp,1
438,,2979,12,hier bin ich kein experte,1562673964578,71,56,female,No,NA,NA,NA,not at all,very much,images/stimuli/56.jpg,How well can you identify patterns in this painting?,6,7,Tue Jul 09 2019 14:05:06 GMT+0200 (Mitteleuropäische Sommerzeit),1562673906705,0.96455,b2_exp,2
438,,790,12,hier bin ich kein experte,1562673964578,71,44,female,No,NA,NA,NA,not at all,very much,images/stimuli/44.jpg,How well can you identify patterns in this painting?,7,7,Tue Jul 09 2019 14:05:06 GMT+0200 (Mitteleuropäische Sommerzeit),1562673906705,0.96455,b2_exp,3
438,,1003,12,hier bin ich kein experte,1562673964578,71,15,female,No,NA,NA,NA,not at all,very much,images/stimuli/15.jpg,How well can you identify patterns in this painting?,2,7,Tue Jul 09 2019 14:05:06 GMT+0200 (Mitteleuropäische Sommerzeit),1562673906705,0.96455,b2_exp,4
438,,595,12,hier bin ich kein experte,1562673964578,71,31,female,No,NA,NA,NA,not at all,very much,images/stimuli/31.jpg,How well can you identify patterns in this painting?,4,7,Tue Jul 09 2019 14:05:06 GMT+0200 (Mitteleuropäische Sommerzeit),1562673906705,0.96455,b2_exp,5
438,,987,12,hier bin ich kein experte,1562673964578,71,22,female,No,NA,NA,NA,not at all,very much,images/stimuli/22.jpg,How well can you identify patterns in this painting?,6,7,Tue Jul 09 2019 14:05:06 GMT+0200 (Mitteleuropäische Sommerzeit),1562673906705,0.96455,b2_exp,6
438,,424,12,hier bin ich kein experte,1562673964578,71,35,female,No,NA,NA,NA,not at all,very much,images/stimuli/35.jpg,How well can you identify patterns in this painting?,3,7,Tue Jul 09 2019 14:05:06 GMT+0200 (Mitteleuropäische Sommerzeit),1562673906705,0.96455,b2_exp,7
438,,1979,12,hier bin ich kein experte,1562673964578,71,12,female,No,NA,NA,NA,not at all,very much,images/stimuli/12.jpg,How well can you identify patterns in this painting?,4,7,Tue Jul 09 2019 14:05:06 GMT+0200 (Mitteleuropäische Sommerzeit),1562673906705,0.96455,b2_exp,8
438,,2417,12,hier bin ich kein experte,1562673964578,71,21,female,No,NA,NA,NA,not at all,very much,images/stimuli/21.jpg,How well can you identify patterns in this painting?,4,7,Tue Jul 09 2019 14:05:06 GMT+0200 (Mitteleuropäische Sommerzeit),1562673906705,0.96455,b2_exp,9
438,,924,12,hier bin ich kein experte,1562673964578,71,41,female,No,NA,NA,NA,not at all,very much,images/stimuli/41.jpg,How well can you identify patterns in this painting?,2,7,Tue Jul 09 2019 14:05:06 GMT+0200 (Mitteleuropäische Sommerzeit),1562673906705,0.96455,b2_exp,10
438,,1681,12,hier bin ich kein experte,1562673964578,71,40,female,No,NA,NA,NA,not at all,very much,images/stimuli/40.jpg,How well can you identify patterns in this painting?,3,7,Tue Jul 09 2019 14:05:06 GMT+0200 (Mitteleuropäische Sommerzeit),1562673906705,0.96455,b2_exp,11
438,,1159,12,hier bin ich kein experte,1562673964578,71,26,female,No,NA,NA,NA,not at all,very much,images/stimuli/26.jpg,How well can you identify patterns in this painting?,2,7,Tue Jul 09 2019 14:05:06 GMT+0200 (Mitteleuropäische Sommerzeit),1562673906705,0.96455,b2_exp,12
438,,1151,12,hier bin ich kein experte,1562673964578,71,19,female,No,NA,NA,NA,not at all,very much,images/stimuli/19.jpg,How well can you identify patterns in this painting?,2,7,Tue Jul 09 2019 14:05:06 GMT+0200 (Mitteleuropäische Sommerzeit),1562673906705,0.96455,b2_exp,13
438,,1693,12,hier bin ich kein experte,1562673964578,71,5,female,No,NA,NA,NA,not at all,very much,images/stimuli/5.jpg,How well can you identify patterns in this painting?,4,7,Tue Jul 09 2019 14:05:06 GMT+0200 (Mitteleuropäische Sommerzeit),1562673906705,0.96455,b2_exp,14
438,,1737,12,hier bin ich kein experte,1562673964578,71,13,female,No,NA,NA,NA,not at all,very much,images/stimuli/13.jpg,How well can you identify patterns in this painting?,1,7,Tue Jul 09 2019 14:05:06 GMT+0200 (Mitteleuropäische Sommerzeit),1562673906705,0.96455,b2_exp,15
438,,782,12,hier bin ich kein experte,1562673964578,71,30,female,No,NA,NA,NA,not at all,very much,images/stimuli/30.jpg,How well can you identify patterns in this painting?,7,7,Tue Jul 09 2019 14:05:06 GMT+0200 (Mitteleuropäische Sommerzeit),1562673906705,0.96455,b2_exp,16
438,,994,12,hier bin ich kein experte,1562673964578,71,23,female,No,NA,NA,NA,not at all,very much,images/stimuli/23.jpg,How well can you identify patterns in this painting?,4,7,Tue Jul 09 2019 14:05:06 GMT+0200 (Mitteleuropäische Sommerzeit),1562673906705,0.96455,b2_exp,17
438,,208,12,hier bin ich kein experte,1562673964578,71,39,female,No,NA,NA,NA,not at all,very much,images/stimuli/39.jpg,How well can you identify patterns in this painting?,7,7,Tue Jul 09 2019 14:05:06 GMT+0200 (Mitteleuropäische Sommerzeit),1562673906705,0.96455,b2_exp,18
438,,994,12,hier bin ich kein experte,1562673964578,71,52,female,No,NA,NA,NA,not at all,very much,images/stimuli/52.jpg,How well can you identify patterns in this painting?,5,7,Tue Jul 09 2019 14:05:06 GMT+0200 (Mitteleuropäische Sommerzeit),1562673906705,0.96455,b2_exp,19
438,,1544,12,hier bin ich kein experte,1562673964578,71,37,female,No,NA,NA,NA,not at all,very much,images/stimuli/37.jpg,How well can you identify patterns in this painting?,5,7,Tue Jul 09 2019 14:05:06 GMT+0200 (Mitteleuropäische Sommerzeit),1562673906705,0.96455,b2_exp,20
438,,466,12,hier bin ich kein experte,1562673964578,71,27,female,No,NA,NA,NA,not at all,very much,images/stimuli/27.jpg,How well can you identify patterns in this painting?,2,7,Tue Jul 09 2019 14:05:06 GMT+0200 (Mitteleuropäische Sommerzeit),1562673906705,0.96455,b2_exp,21
438,,394,12,hier bin ich kein experte,1562673964578,71,4,female,No,NA,NA,NA,not at all,very much,images/stimuli/4.jpg,How well can you identify patterns in this painting?,6,7,Tue Jul 09 2019 14:05:06 GMT+0200 (Mitteleuropäische Sommerzeit),1562673906705,0.96455,b2_exp,22
438,,2567,12,hier bin ich kein experte,1562673964578,71,57,female,No,NA,NA,NA,not at all,very much,images/stimuli/57.jpg,How well can you identify patterns in this painting?,1,7,Tue Jul 09 2019 14:05:06 GMT+0200 (Mitteleuropäische Sommerzeit),1562673906705,0.96455,b2_exp,23
438,,1513,12,hier bin ich kein experte,1562673964578,71,46,female,No,NA,NA,NA,not at all,very much,images/stimuli/46.jpg,How well can you identify patterns in this painting?,1,7,Tue Jul 09 2019 14:05:06 GMT+0200 (Mitteleuropäische Sommerzeit),1562673906705,0.96455,b2_exp,24
438,,618,12,hier bin ich kein experte,1562673964578,71,3,female,No,NA,NA,NA,not at all,very much,images/stimuli/3.jpg,How well can you identify patterns in this painting?,6,7,Tue Jul 09 2019 14:05:06 GMT+0200 (Mitteleuropäische Sommerzeit),1562673906705,0.96455,b2_exp,25
438,,600,12,hier bin ich kein experte,1562673964578,71,50,female,No,NA,NA,NA,not at all,very much,images/stimuli/50.jpg,How well can you identify patterns in this painting?,1,7,Tue Jul 09 2019 14:05:06 GMT+0200 (Mitteleuropäische Sommerzeit),1562673906705,0.96455,b2_exp,26
438,,840,12,hier bin ich kein experte,1562673964578,71,58,female,No,NA,NA,NA,not at all,very much,images/stimuli/58.jpg,How well can you identify patterns in this painting?,7,7,Tue Jul 09 2019 14:05:06 GMT+0200 (Mitteleuropäische Sommerzeit),1562673906705,0.96455,b2_exp,27
438,,2410,12,hier bin ich kein experte,1562673964578,71,43,female,No,NA,NA,NA,not at all,very much,images/stimuli/43.jpg,How well can you identify patterns in this painting?,1,7,Tue Jul 09 2019 14:05:06 GMT+0200 (Mitteleuropäische Sommerzeit),1562673906705,0.96455,b2_exp,28
438,,1860,12,hier bin ich kein experte,1562673964578,71,6,female,No,NA,NA,NA,not at all,very much,images/stimuli/6.jpg,How well can you identify patterns in this painting?,4,7,Tue Jul 09 2019 14:05:06 GMT+0200 (Mitteleuropäische Sommerzeit),1562673906705,0.96455,b2_exp,29
438,,2471,12,hier bin ich kein experte,1562673964578,71,38,female,No,NA,NA,NA,not at all,very much,images/stimuli/38.jpg,How well can you identify patterns in this painting?,7,7,Tue Jul 09 2019 14:05:06 GMT+0200 (Mitteleuropäische Sommerzeit),1562673906705,0.96455,b2_exp,30
438,,2358,12,hier bin ich kein experte,1562673964578,71,14,female,No,NA,NA,NA,not at all,very much,images/stimuli/14.jpg,How well can you identify patterns in this painting?,7,7,Tue Jul 09 2019 14:05:06 GMT+0200 (Mitteleuropäische Sommerzeit),1562673906705,0.96455,b2_exp,31
438,,2581,12,hier bin ich kein experte,1562673964578,71,55,female,No,NA,NA,NA,not at all,very much,images/stimuli/55.jpg,How well can you identify patterns in this painting?,6,7,Tue Jul 09 2019 14:05:06 GMT+0200 (Mitteleuropäische Sommerzeit),1562673906705,0.96455,b2_exp,32
438,,2631,12,hier bin ich kein experte,1562673964578,71,7,female,No,NA,NA,NA,not at all,very much,images/stimuli/7.jpg,How well can you identify patterns in this painting?,7,7,Tue Jul 09 2019 14:05:06 GMT+0200 (Mitteleuropäische Sommerzeit),1562673906705,0.96455,b2_exp,33
438,,855,12,hier bin ich kein experte,1562673964578,71,29,female,No,NA,NA,NA,not at all,very much,images/stimuli/29.jpg,How well can you identify patterns in this painting?,4,7,Tue Jul 09 2019 14:05:06 GMT+0200 (Mitteleuropäische Sommerzeit),1562673906705,0.96455,b2_exp,34
438,,2219,12,hier bin ich kein experte,1562673964578,71,47,female,No,NA,NA,NA,not at all,very much,images/stimuli/47.jpg,How well can you identify patterns in this painting?,2,7,Tue Jul 09 2019 14:05:06 GMT+0200 (Mitteleuropäische Sommerzeit),1562673906705,0.96455,b2_exp,35
438,,2918,12,hier bin ich kein experte,1562673964578,71,33,female,No,NA,NA,NA,not at all,very much,images/stimuli/33.jpg,How well can you identify patterns in this painting?,1,7,Tue Jul 09 2019 14:05:06 GMT+0200 (Mitteleuropäische Sommerzeit),1562673906705,0.96455,b2_exp,36
438,,2044,12,hier bin ich kein experte,1562673964578,71,34,female,No,NA,NA,NA,not at all,very much,images/stimuli/34.jpg,How well can you identify patterns in this painting?,7,7,Tue Jul 09 2019 14:05:06 GMT+0200 (Mitteleuropäische Sommerzeit),1562673906705,0.96455,b2_exp,37
438,,603,12,hier bin ich kein experte,1562673964578,71,42,female,No,NA,NA,NA,not at all,very much,images/stimuli/42.jpg,How well can you identify patterns in this painting?,1,7,Tue Jul 09 2019 14:05:06 GMT+0200 (Mitteleuropäische Sommerzeit),1562673906705,0.96455,b2_exp,38
438,,1959,12,hier bin ich kein experte,1562673964578,71,59,female,No,NA,NA,NA,not at all,very much,images/stimuli/59.jpg,How well can you identify patterns in this painting?,2,7,Tue Jul 09 2019 14:05:06 GMT+0200 (Mitteleuropäische Sommerzeit),1562673906705,0.96455,b2_exp,39
438,,2770,12,hier bin ich kein experte,1562673964578,71,51,female,No,NA,NA,NA,not at all,very much,images/stimuli/51.jpg,How well can you identify patterns in this painting?,5,7,Tue Jul 09 2019 14:05:06 GMT+0200 (Mitteleuropäische Sommerzeit),1562673906705,0.96455,b2_exp,40
438,,884,12,hier bin ich kein experte,1562673964578,71,54,female,No,NA,NA,NA,not at all,very much,images/stimuli/54.jpg,How well can you identify patterns in this painting?,6,7,Tue Jul 09 2019 14:05:06 GMT+0200 (Mitteleuropäische Sommerzeit),1562673906705,0.96455,b2_exp,41
438,,918,12,hier bin ich kein experte,1562673964578,71,10,female,No,NA,NA,NA,not at all,very much,images/stimuli/10.jpg,How well can you identify patterns in this painting?,6,7,Tue Jul 09 2019 14:05:06 GMT+0200 (Mitteleuropäische Sommerzeit),1562673906705,0.96455,b2_exp,42
438,,2186,12,hier bin ich kein experte,1562673964578,71,45,female,No,NA,NA,NA,not at all,very much,images/stimuli/45.jpg,How well can you identify patterns in this painting?,1,7,Tue Jul 09 2019 14:05:06 GMT+0200 (Mitteleuropäische Sommerzeit),1562673906705,0.96455,b2_exp,43
438,,771,12,hier bin ich kein experte,1562673964578,71,53,female,No,NA,NA,NA,not at all,very much,images/stimuli/53.jpg,How well can you identify patterns in this painting?,2,7,Tue Jul 09 2019 14:05:06 GMT+0200 (Mitteleuropäische Sommerzeit),1562673906705,0.96455,b2_exp,44
438,,749,12,hier bin ich kein experte,1562673964578,71,32,female,No,NA,NA,NA,not at all,very much,images/stimuli/32.jpg,How well can you identify patterns in this painting?,6,7,Tue Jul 09 2019 14:05:06 GMT+0200 (Mitteleuropäische Sommerzeit),1562673906705,0.96455,b2_exp,45
438,,2984,12,hier bin ich kein experte,1562673964578,71,49,female,No,NA,NA,NA,not at all,very much,images/stimuli/49.jpg,How well can you identify patterns in this painting?,7,7,Tue Jul 09 2019 14:05:06 GMT+0200 (Mitteleuropäische Sommerzeit),1562673906705,0.96455,b2_exp,46
438,,610,12,hier bin ich kein experte,1562673964578,71,11,female,No,NA,NA,NA,not at all,very much,images/stimuli/11.jpg,How well can you identify patterns in this painting?,1,7,Tue Jul 09 2019 14:05:06 GMT+0200 (Mitteleuropäische Sommerzeit),1562673906705,0.96455,b2_exp,47
438,,1368,12,hier bin ich kein experte,1562673964578,71,48,female,No,NA,NA,NA,not at all,very much,images/stimuli/48.jpg,How well can you identify patterns in this painting?,3,7,Tue Jul 09 2019 14:05:06 GMT+0200 (Mitteleuropäische Sommerzeit),1562673906705,0.96455,b2_exp,48
438,,723,12,hier bin ich kein experte,1562673964578,71,8,female,No,NA,NA,NA,not at all,very much,images/stimuli/8.jpg,How well can you identify patterns in this painting?,4,7,Tue Jul 09 2019 14:05:06 GMT+0200 (Mitteleuropäische Sommerzeit),1562673906705,0.96455,b2_exp,49
438,,282,12,hier bin ich kein experte,1562673964578,71,17,female,No,NA,NA,NA,not at all,very much,images/stimuli/17.jpg,How well can you identify patterns in this painting?,1,7,Tue Jul 09 2019 14:05:06 GMT+0200 (Mitteleuropäische Sommerzeit),1562673906705,0.96455,b2_exp,50
438,,1209,12,hier bin ich kein experte,1562673964578,71,9,female,No,NA,NA,NA,not at all,very much,images/stimuli/9.jpg,How well can you identify patterns in this painting?,2,7,Tue Jul 09 2019 14:05:06 GMT+0200 (Mitteleuropäische Sommerzeit),1562673906705,0.96455,b2_exp,51
438,,1437,12,hier bin ich kein experte,1562673964578,71,25,female,No,NA,NA,NA,not at all,very much,images/stimuli/25.jpg,How well can you identify patterns in this painting?,1,7,Tue Jul 09 2019 14:05:06 GMT+0200 (Mitteleuropäische Sommerzeit),1562673906705,0.96455,b2_exp,52
438,,2657,12,hier bin ich kein experte,1562673964578,71,2,female,No,NA,NA,NA,not at all,very much,images/stimuli/2.jpg,How well can you identify patterns in this painting?,2,7,Tue Jul 09 2019 14:05:06 GMT+0200 (Mitteleuropäische Sommerzeit),1562673906705,0.96455,b2_exp,53
438,,375,12,hier bin ich kein experte,1562673964578,71,16,female,No,NA,NA,NA,not at all,very much,images/stimuli/16.jpg,How well can you identify patterns in this painting?,2,7,Tue Jul 09 2019 14:05:06 GMT+0200 (Mitteleuropäische Sommerzeit),1562673906705,0.96455,b2_exp,54
438,,2289,12,hier bin ich kein experte,1562673964578,71,28,female,No,NA,NA,NA,not at all,very much,images/stimuli/28.jpg,How well can you identify patterns in this painting?,7,7,Tue Jul 09 2019 14:05:06 GMT+0200 (Mitteleuropäische Sommerzeit),1562673906705,0.96455,b2_exp,55
438,,1808,12,hier bin ich kein experte,1562673964578,71,60,female,No,NA,NA,NA,not at all,very much,images/stimuli/60.jpg,How well can you identify patterns in this painting?,6,7,Tue Jul 09 2019 14:05:06 GMT+0200 (Mitteleuropäische Sommerzeit),1562673906705,0.96455,b2_exp,56
438,,818,12,hier bin ich kein experte,1562673964578,71,1,female,No,NA,NA,NA,not at all,very much,images/stimuli/1.jpg,How well can you identify patterns in this painting?,3,7,Tue Jul 09 2019 14:05:06 GMT+0200 (Mitteleuropäische Sommerzeit),1562673906705,0.96455,b2_exp,57
438,,503,12,hier bin ich kein experte,1562673964578,71,36,female,No,NA,NA,NA,not at all,very much,images/stimuli/36.jpg,How well can you identify patterns in this painting?,3,7,Tue Jul 09 2019 14:05:06 GMT+0200 (Mitteleuropäische Sommerzeit),1562673906705,0.96455,b2_exp,58
438,,1103,12,hier bin ich kein experte,1562673964578,71,24,female,No,NA,NA,NA,not at all,very much,images/stimuli/24.jpg,How well can you identify patterns in this painting?,7,7,Tue Jul 09 2019 14:05:06 GMT+0200 (Mitteleuropäische Sommerzeit),1562673906705,0.96455,b2_exp,59
438,,2932,12,hier bin ich kein experte,1562673964578,71,20,female,No,NA,NA,NA,not at all,very much,images/stimuli/20.jpg,How well can you identify patterns in this painting?,7,7,Tue Jul 09 2019 14:05:06 GMT+0200 (Mitteleuropäische Sommerzeit),1562673906705,0.96455,b2_exp,60
440,,1998,98,hier bin ich ein experte,1562674093708,71,NA,divers,Yes,0,NA,NA,NA,NA,images/snellen/snellen.png,Which row is the last one where you can recognize <strong>all letters</strong> completely? Only type in the number of this row (between 1 and 11): ,3,11,Tue Jul 09 2019 14:07:02 GMT+0200 (Mitteleuropäische Sommerzeit),1562674022061,1.1941166666666667,test_snellen,1
440,,932,98,hier bin ich ein experte,1562674093708,71,NA,divers,Yes,NA,Yes,No,NA,NA,NA,Do you consider yourself an <strong>expert in Cubist art</strong> or were ever engaged in any kind of Cubist art education?,4,11,Tue Jul 09 2019 14:07:02 GMT+0200 (Mitteleuropäische Sommerzeit),1562674022061,1.1941166666666667,b0_expert,1
440,,1585,98,hier bin ich ein experte,1562674093708,71,33,divers,Yes,NA,NA,NA,not at all,very much,images/stimuli/33.jpg,How much do you like this painting?,2,11,Tue Jul 09 2019 14:07:02 GMT+0200 (Mitteleuropäische Sommerzeit),1562674022061,1.1941166666666667,b1_exp,1
440,,1304,98,hier bin ich ein experte,1562674093708,71,29,divers,Yes,NA,NA,NA,not at all,very much,images/stimuli/29.jpg,How much do you like this painting?,6,11,Tue Jul 09 2019 14:07:02 GMT+0200 (Mitteleuropäische Sommerzeit),1562674022061,1.1941166666666667,b1_exp,2
440,,1705,98,hier bin ich ein experte,1562674093708,71,48,divers,Yes,NA,NA,NA,not at all,very much,images/stimuli/48.jpg,How much do you like this painting?,6,11,Tue Jul 09 2019 14:07:02 GMT+0200 (Mitteleuropäische Sommerzeit),1562674022061,1.1941166666666667,b1_exp,3
440,,2890,98,hier bin ich ein experte,1562674093708,71,4,divers,Yes,NA,NA,NA,not at all,very much,images/stimuli/4.jpg,How much do you like this painting?,3,11,Tue Jul 09 2019 14:07:02 GMT+0200 (Mitteleuropäische Sommerzeit),1562674022061,1.1941166666666667,b1_exp,4
440,,2782,98,hier bin ich ein experte,1562674093708,71,54,divers,Yes,NA,NA,NA,not at all,very much,images/stimuli/54.jpg,How much do you like this painting?,7,11,Tue Jul 09 2019 14:07:02 GMT+0200 (Mitteleuropäische Sommerzeit),1562674022061,1.1941166666666667,b1_exp,5
440,,2475,98,hier bin ich ein experte,1562674093708,71,27,divers,Yes,NA,NA,NA,not at all,very much,images/stimuli/27.jpg,How much do you like this painting?,7,11,Tue Jul 09 2019 14:07:02 GMT+0200 (Mitteleuropäische Sommerzeit),1562674022061,1.1941166666666667,b1_exp,6
440,,1649,98,hier bin ich ein experte,1562674093708,71,50,divers,Yes,NA,NA,NA,not at all,very much,images/stimuli/50.jpg,How much do you like this painting?,3,11,Tue Jul 09 2019 14:07:02 GMT+0200 (Mitteleuropäische Sommerzeit),1562674022061,1.1941166666666667,b1_exp,7
440,,599,98,hier bin ich ein experte,1562674093708,71,57,divers,Yes,NA,NA,NA,not at all,very much,images/stimuli/57.jpg,How much do you like this painting?,4,11,Tue Jul 09 2019 14:07:02 GMT+0200 (Mitteleuropäische Sommerzeit),1562674022061,1.1941166666666667,b1_exp,8
440,,2876,98,hier bin ich ein experte,1562674093708,71,36,divers,Yes,NA,NA,NA,not at all,very much,images/stimuli/36.jpg,How much do you like this painting?,3,11,Tue Jul 09 2019 14:07:02 GMT+0200 (Mitteleuropäische Sommerzeit),1562674022061,1.1941166666666667,b1_exp,9
440,,206,98,hier bin ich ein experte,1562674093708,71,58,divers,Yes,NA,NA,NA,not at all,very much,images/stimuli/58.jpg,How much do you like this painting?,5,11,Tue Jul 09 2019 14:07:02 GMT+0200 (Mitteleuropäische Sommerzeit),1562674022061,1.1941166666666667,b1_exp,10
440,,137,98,hier bin ich ein experte,1562674093708,71,49,divers,Yes,NA,NA,NA,not at all,very much,images/stimuli/49.jpg,How much do you like this painting?,4,11,Tue Jul 09 2019 14:07:02 GMT+0200 (Mitteleuropäische Sommerzeit),1562674022061,1.1941166666666667,b1_exp,11
440,,310,98,hier bin ich ein experte,1562674093708,71,16,divers,Yes,NA,NA,NA,not at all,very much,images/stimuli/16.jpg,How much do you like this painting?,2,11,Tue Jul 09 2019 14:07:02 GMT+0200 (Mitteleuropäische Sommerzeit),1562674022061,1.1941166666666667,b1_exp,12
440,,593,98,hier bin ich ein experte,1562674093708,71,12,divers,Yes,NA,NA,NA,not at all,very much,images/stimuli/12.jpg,How much do you like this painting?,5,11,Tue Jul 09 2019 14:07:02 GMT+0200 (Mitteleuropäische Sommerzeit),1562674022061,1.1941166666666667,b1_exp,13
440,,2025,98,hier bin ich ein experte,1562674093708,71,13,divers,Yes,NA,NA,NA,not at all,very much,images/stimuli/13.jpg,How much do you like this painting?,4,11,Tue Jul 09 2019 14:07:02 GMT+0200 (Mitteleuropäische Sommerzeit),1562674022061,1.1941166666666667,b1_exp,14
440,,1786,98,hier bin ich ein experte,1562674093708,71,46,divers,Yes,NA,NA,NA,not at all,very much,images/stimuli/46.jpg,How much do you like this painting?,1,11,Tue Jul 09 2019 14:07:02 GMT+0200 (Mitteleuropäische Sommerzeit),1562674022061,1.1941166666666667,b1_exp,15
440,,2457,98,hier bin ich ein experte,1562674093708,71,7,divers,Yes,NA,NA,NA,not at all,very much,images/stimuli/7.jpg,How much do you like this painting?,7,11,Tue Jul 09 2019 14:07:02 GMT+0200 (Mitteleuropäische Sommerzeit),1562674022061,1.1941166666666667,b1_exp,16
440,,1768,98,hier bin ich ein experte,1562674093708,71,11,divers,Yes,NA,NA,NA,not at all,very much,images/stimuli/11.jpg,How much do you like this painting?,7,11,Tue Jul 09 2019 14:07:02 GMT+0200 (Mitteleuropäische Sommerzeit),1562674022061,1.1941166666666667,b1_exp,17
440,,141,98,hier bin ich ein experte,1562674093708,71,24,divers,Yes,NA,NA,NA,not at all,very much,images/stimuli/24.jpg,How much do you like this painting?,7,11,Tue Jul 09 2019 14:07:02 GMT+0200 (Mitteleuropäische Sommerzeit),1562674022061,1.1941166666666667,b1_exp,18
440,,1416,98,hier bin ich ein experte,1562674093708,71,20,divers,Yes,NA,NA,NA,not at all,very much,images/stimuli/20.jpg,How much do you like this painting?,2,11,Tue Jul 09 2019 14:07:02 GMT+0200 (Mitteleuropäische Sommerzeit),1562674022061,1.1941166666666667,b1_exp,19
440,,2094,98,hier bin ich ein experte,1562674093708,71,42,divers,Yes,NA,NA,NA,not at all,very much,images/stimuli/42.jpg,How much do you like this painting?,2,11,Tue Jul 09 2019 14:07:02 GMT+0200 (Mitteleuropäische Sommerzeit),1562674022061,1.1941166666666667,b1_exp,20
440,,2560,98,hier bin ich ein experte,1562674093708,71,38,divers,Yes,NA,NA,NA,not at all,very much,images/stimuli/38.jpg,How much do you like this painting?,6,11,Tue Jul 09 2019 14:07:02 GMT+0200 (Mitteleuropäische Sommerzeit),1562674022061,1.1941166666666667,b1_exp,21
440,,1015,98,hier bin ich ein experte,1562674093708,71,15,divers,Yes,NA,NA,NA,not at all,very much,images/stimuli/15.jpg,How much do you like this painting?,6,11,Tue Jul 09 2019 14:07:02 GMT+0200 (Mitteleuropäische Sommerzeit),1562674022061,1.1941166666666667,b1_exp,22
440,,1955,98,hier bin ich ein experte,1562674093708,71,25,divers,Yes,NA,NA,NA,not at all,very much,images/stimuli/25.jpg,How much do you like this painting?,1,11,Tue Jul 09 2019 14:07:02 GMT+0200 (Mitteleuropäische Sommerzeit),1562674022061,1.1941166666666667,b1_exp,23
440,,1442,98,hier bin ich ein experte,1562674093708,71,56,divers,Yes,NA,NA,NA,not at all,very much,images/stimuli/56.jpg,How much do you like this painting?,7,11,Tue Jul 09 2019 14:07:02 GMT+0200 (Mitteleuropäische Sommerzeit),1562674022061,1.1941166666666667,b1_exp,24
440,,1716,98,hier bin ich ein experte,1562674093708,71,47,divers,Yes,NA,NA,NA,not at all,very much,images/stimuli/47.jpg,How much do you like this painting?,5,11,Tue Jul 09 2019 14:07:02 GMT+0200 (Mitteleuropäische Sommerzeit),1562674022061,1.1941166666666667,b1_exp,25
440,,2566,98,hier bin ich ein experte,1562674093708,71,43,divers,Yes,NA,NA,NA,not at all,very much,images/stimuli/43.jpg,How much do you like this painting?,5,11,Tue Jul 09 2019 14:07:02 GMT+0200 (Mitteleuropäische Sommerzeit),1562674022061,1.1941166666666667,b1_exp,26
440,,2610,98,hier bin ich ein experte,1562674093708,71,8,divers,Yes,NA,NA,NA,not at all,very much,images/stimuli/8.jpg,How much do you like this painting?,3,11,Tue Jul 09 2019 14:07:02 GMT+0200 (Mitteleuropäische Sommerzeit),1562674022061,1.1941166666666667,b1_exp,27
440,,1317,98,hier bin ich ein experte,1562674093708,71,6,divers,Yes,NA,NA,NA,not at all,very much,images/stimuli/6.jpg,How much do you like this painting?,7,11,Tue Jul 09 2019 14:07:02 GMT+0200 (Mitteleuropäische Sommerzeit),1562674022061,1.1941166666666667,b1_exp,28
440,,629,98,hier bin ich ein experte,1562674093708,71,14,divers,Yes,NA,NA,NA,not at all,very much,images/stimuli/14.jpg,How much do you like this painting?,2,11,Tue Jul 09 2019 14:07:02 GMT+0200 (Mitteleuropäische Sommerzeit),1562674022061,1.1941166666666667,b1_exp,29
440,,2999,98,hier bin ich ein experte,1562674093708,71,17,divers,Yes,NA,NA,NA,not at all,very much,images/stimuli/17.jpg,How much do you like this painting?,1,11,Tue Jul 09 2019 14:07:02 GMT+0200 (Mitteleuropäische Sommerzeit),1562674022061,1.1941166666666667,b1_exp,30
440,,135,98,hier bin ich ein experte,1562674093708,71,5,divers,Yes,NA,NA,NA,not at all,very much,images/stimuli/5.jpg,How much do you like this painting?,4,11,Tue Jul 09 2019 14:07:02 GMT+0200 (Mitteleuropäische Sommerzeit),1562674022061,1.1941166666666667,b1_exp,31
440,,2983,98,hier bin ich ein experte,1562674093708,71,51,divers,Yes,NA,NA,NA,not at all,very much,images/stimuli/51.jpg,How much do you like this painting?,7,11,Tue Jul 09 2019 14:07:02 GMT+0200 (Mitteleuropäische Sommerzeit),1562674022061,1.1941166666666667,b1_exp,32
440,,1014,98,hier bin ich ein experte,1562674093708,71,19,divers,Yes,NA,NA,NA,not at all,very much,images/stimuli/19.jpg,How much do you like this painting?,6,11,Tue Jul 09 2019 14:07:02 GMT+0200 (Mitteleuropäische Sommerzeit),1562674022061,1.1941166666666667,b1_exp,33
440,,2300,98,hier bin ich ein experte,1562674093708,71,34,divers,Yes,NA,NA,NA,not at all,very much,images/stimuli/34.jpg,How much do you like this painting?,3,11,Tue Jul 09 2019 14:07:02 GMT+0200 (Mitteleuropäische Sommerzeit),1562674022061,1.1941166666666667,b1_exp,34
440,,2963,98,hier bin ich ein experte,1562674093708,71,3,divers,Yes,NA,NA,NA,not at all,very much,images/stimuli/3.jpg,How much do you like this painting?,6,11,Tue Jul 09 2019 14:07:02 GMT+0200 (Mitteleuropäische Sommerzeit),1562674022061,1.1941166666666667,b1_exp,35
440,,2363,98,hier bin ich ein experte,1562674093708,71,39,divers,Yes,NA,NA,NA,not at all,very much,images/stimuli/39.jpg,How much do you like this painting?,2,11,Tue Jul 09 2019 14:07:02 GMT+0200 (Mitteleuropäische Sommerzeit),1562674022061,1.1941166666666667,b1_exp,36
440,,2335,98,hier bin ich ein experte,1562674093708,71,32,divers,Yes,NA,NA,NA,not at all,very much,images/stimuli/32.jpg,How much do you like this painting?,7,11,Tue Jul 09 2019 14:07:02 GMT+0200 (Mitteleuropäische Sommerzeit),1562674022061,1.1941166666666667,b1_exp,37
440,,599,98,hier bin ich ein experte,1562674093708,71,41,divers,Yes,NA,NA,NA,not at all,very much,images/stimuli/41.jpg,How much do you like this painting?,7,11,Tue Jul 09 2019 14:07:02 GMT+0200 (Mitteleuropäische Sommerzeit),1562674022061,1.1941166666666667,b1_exp,38
440,,2180,98,hier bin ich ein experte,1562674093708,71,45,divers,Yes,NA,NA,NA,not at all,very much,images/stimuli/45.jpg,How much do you like this painting?,2,11,Tue Jul 09 2019 14:07:02 GMT+0200 (Mitteleuropäische Sommerzeit),1562674022061,1.1941166666666667,b1_exp,39
440,,517,98,hier bin ich ein experte,1562674093708,71,22,divers,Yes,NA,NA,NA,not at all,very much,images/stimuli/22.jpg,How much do you like this painting?,3,11,Tue Jul 09 2019 14:07:02 GMT+0200 (Mitteleuropäische Sommerzeit),1562674022061,1.1941166666666667,b1_exp,40
440,,840,98,hier bin ich ein experte,1562674093708,71,35,divers,Yes,NA,NA,NA,not at all,very much,images/stimuli/35.jpg,How much do you like this painting?,7,11,Tue Jul 09 2019 14:07:02 GMT+0200 (Mitteleuropäische Sommerzeit),1562674022061,1.1941166666666667,b1_exp,41
440,,448,98,hier bin ich ein experte,1562674093708,71,44,divers,Yes,NA,NA,NA,not at all,very much,images/stimuli/44.jpg,How much do you like this painting?,4,11,Tue Jul 09 2019 14:07:02 GMT+0200 (Mitteleuropäische Sommerzeit),1562674022061,1.1941166666666667,b1_exp,42
440,,1080,98,hier bin ich ein experte,1562674093708,71,1,divers,Yes,NA,NA,NA,not at all,very much,images/stimuli/1.jpg,How much do you like this painting?,2,11,Tue Jul 09 2019 14:07:02 GMT+0200 (Mitteleuropäische Sommerzeit),1562674022061,1.1941166666666667,b1_exp,43
440,,153,98,hier bin ich ein experte,1562674093708,71,9,divers,Yes,NA,NA,NA,not at all,very much,images/stimuli/9.jpg,How much do you like this painting?,7,11,Tue Jul 09 2019 14:07:02 GMT+0200 (Mitteleuropäische Sommerzeit),1562674022061,1.1941166666666667,b1_exp,44
440,,2062,98,hier bin ich ein experte,1562674093708,71,52,divers,Yes,NA,NA,NA,not at all,very much,images/stimuli/52.jpg,How much do you like this painting?,4,11,Tue Jul 09 2019 14:07:02 GMT+0200 (Mitteleuropäische Sommerzeit),1562674022061,1.1941166666666667,b1_exp,45
440,,2828,98,hier bin ich ein experte,1562674093708,71,53,divers,Yes,NA,NA,NA,not at all,very much,images/stimuli/53.jpg,How much do you like this painting?,2,11,Tue Jul 09 2019 14:07:02 GMT+0200 (Mitteleuropäische Sommerzeit),1562674022061,1.1941166666666667,b1_exp,46
440,,1839,98,hier bin ich ein experte,1562674093708,71,21,divers,Yes,NA,NA,NA,not at all,very much,images/stimuli/21.jpg,How much do you like this painting?,5,11,Tue Jul 09 2019 14:07:02 GMT+0200 (Mitteleuropäische Sommerzeit),1562674022061,1.1941166666666667,b1_exp,47
440,,2884,98,hier bin ich ein experte,1562674093708,71,31,divers,Yes,NA,NA,NA,not at all,very much,images/stimuli/31.jpg,How much do you like this painting?,4,11,Tue Jul 09 2019 14:07:02 GMT+0200 (Mitteleuropäische Sommerzeit),1562674022061,1.1941166666666667,b1_exp,48
440,,1492,98,hier bin ich ein experte,1562674093708,71,26,divers,Yes,NA,NA,NA,not at all,very much,images/stimuli/26.jpg,How much do you like this painting?,7,11,Tue Jul 09 2019 14:07:02 GMT+0200 (Mitteleuropäische Sommerzeit),1562674022061,1.1941166666666667,b1_exp,49
440,,1496,98,hier bin ich ein experte,1562674093708,71,37,divers,Yes,NA,NA,NA,not at all,very much,images/stimuli/37.jpg,How much do you like this painting?,1,11,Tue Jul 09 2019 14:07:02 GMT+0200 (Mitteleuropäische Sommerzeit),1562674022061,1.1941166666666667,b1_exp,50
440,,2062,98,hier bin ich ein experte,1562674093708,71,18,divers,Yes,NA,NA,NA,not at all,very much,images/stimuli/18.jpg,How much do you like this painting?,3,11,Tue Jul 09 2019 14:07:02 GMT+0200 (Mitteleuropäische Sommerzeit),1562674022061,1.1941166666666667,b1_exp,51
440,,1110,98,hier bin ich ein experte,1562674093708,71,40,divers,Yes,NA,NA,NA,not at all,very much,images/stimuli/40.jpg,How much do you like this painting?,3,11,Tue Jul 09 2019 14:07:02 GMT+0200 (Mitteleuropäische Sommerzeit),1562674022061,1.1941166666666667,b1_exp,52
440,,1041,98,hier bin ich ein experte,1562674093708,71,60,divers,Yes,NA,NA,NA,not at all,very much,images/stimuli/60.jpg,How much do you like this painting?,3,11,Tue Jul 09 2019 14:07:02 GMT+0200 (Mitteleuropäische Sommerzeit),1562674022061,1.1941166666666667,b1_exp,53
440,,2013,98,hier bin ich ein experte,1562674093708,71,55,divers,Yes,NA,NA,NA,not at all,very much,images/stimuli/55.jpg,How much do you like this painting?,4,11,Tue Jul 09 2019 14:07:02 GMT+0200 (Mitteleuropäische Sommerzeit),1562674022061,1.1941166666666667,b1_exp,54
440,,1873,98,hier bin ich ein experte,1562674093708,71,23,divers,Yes,NA,NA,NA,not at all,very much,images/stimuli/23.jpg,How much do you like this painting?,4,11,Tue Jul 09 2019 14:07:02 GMT+0200 (Mitteleuropäische Sommerzeit),1562674022061,1.1941166666666667,b1_exp,55
440,,2261,98,hier bin ich ein experte,1562674093708,71,30,divers,Yes,NA,NA,NA,not at all,very much,images/stimuli/30.jpg,How much do you like this painting?,5,11,Tue Jul 09 2019 14:07:02 GMT+0200 (Mitteleuropäische Sommerzeit),1562674022061,1.1941166666666667,b1_exp,56
440,,1500,98,hier bin ich ein experte,1562674093708,71,28,divers,Yes,NA,NA,NA,not at all,very much,images/stimuli/28.jpg,How much do you like this painting?,5,11,Tue Jul 09 2019 14:07:02 GMT+0200 (Mitteleuropäische Sommerzeit),1562674022061,1.1941166666666667,b1_exp,57
440,,1034,98,hier bin ich ein experte,1562674093708,71,2,divers,Yes,NA,NA,NA,not at all,very much,images/stimuli/2.jpg,How much do you like this painting?,7,11,Tue Jul 09 2019 14:07:02 GMT+0200 (Mitteleuropäische Sommerzeit),1562674022061,1.1941166666666667,b1_exp,58
440,,244,98,hier bin ich ein experte,1562674093708,71,10,divers,Yes,NA,NA,NA,not at all,very much,images/stimuli/10.jpg,How much do you like this painting?,3,11,Tue Jul 09 2019 14:07:02 GMT+0200 (Mitteleuropäische Sommerzeit),1562674022061,1.1941166666666667,b1_exp,59
440,,1688,98,hier bin ich ein experte,1562674093708,71,59,divers,Yes,NA,NA,NA,not at all,very much,images/stimuli/59.jpg,How much do you like this painting?,4,11,Tue Jul 09 2019 14:07:02 GMT+0200 (Mitteleuropäische Sommerzeit),1562674022061,1.1941166666666667,b1_exp,60
440,,2178,98,hier bin ich ein experte,1562674093708,71,24,divers,Yes,NA,NA,NA,not at all,very much,images/stimuli/24.jpg,How well can you identify patterns in this painting?,6,11,Tue Jul 09 2019 14:07:02 GMT+0200 (Mitteleuropäische Sommerzeit),1562674022061,1.1941166666666667,b2_exp,1
440,,1992,98,hier bin ich ein experte,1562674093708,71,30,divers,Yes,NA,NA,NA,not at all,very much,images/stimuli/30.jpg,How well can you identify patterns in this painting?,3,11,Tue Jul 09 2019 14:07:02 GMT+0200 (Mitteleuropäische Sommerzeit),1562674022061,1.1941166666666667,b2_exp,2
440,,479,98,hier bin ich ein experte,1562674093708,71,14,divers,Yes,NA,NA,NA,not at all,very much,images/stimuli/14.jpg,How well can you identify patterns in this painting?,3,11,Tue Jul 09 2019 14:07:02 GMT+0200 (Mitteleuropäische Sommerzeit),1562674022061,1.1941166666666667,b2_exp,3
440,,801,98,hier bin ich ein experte,1562674093708,71,38,divers,Yes,NA,NA,NA,not at all,very much,images/stimuli/38.jpg,How well can you identify patterns in this painting?,4,11,Tue Jul 09 2019 14:07:02 GMT+0200 (Mitteleuropäische Sommerzeit),1562674022061,1.1941166666666667,b2_exp,4
440,,1911,98,hier bin ich ein experte,1562674093708,71,57,divers,Yes,NA,NA,NA,not at all,very much,images/stimuli/57.jpg,How well can you identify patterns in this painting?,3,11,Tue Jul 09 2019 14:07:02 GMT+0200 (Mitteleuropäische Sommerzeit),1562674022061,1.1941166666666667,b2_exp,5
440,,2435,98,hier bin ich ein experte,1562674093708,71,55,divers,Yes,NA,NA,NA,not at all,very much,images/stimuli/55.jpg,How well can you identify patterns in this painting?,3,11,Tue Jul 09 2019 14:07:02 GMT+0200 (Mitteleuropäische Sommerzeit),1562674022061,1.1941166666666667,b2_exp,6
440,,2490,98,hier bin ich ein experte,1562674093708,71,28,divers,Yes,NA,NA,NA,not at all,very much,images/stimuli/28.jpg,How well can you identify patterns in this painting?,5,11,Tue Jul 09 2019 14:07:02 GMT+0200 (Mitteleuropäische Sommerzeit),1562674022061,1.1941166666666667,b2_exp,7
440,,1587,98,hier bin ich ein experte,1562674093708,71,26,divers,Yes,NA,NA,NA,not at all,very much,images/stimuli/26.jpg,How well can you identify patterns in this painting?,6,11,Tue Jul 09 2019 14:07:02 GMT+0200 (Mitteleuropäische Sommerzeit),1562674022061,1.1941166666666667,b2_exp,8
440,,1165,98,hier bin ich ein experte,1562674093708,71,58,divers,Yes,NA,NA,NA,not at all,very much,images/stimuli/58.jpg,How well can you identify patterns in this painting?,7,11,Tue Jul 09 2019 14:07:02 GMT+0200 (Mitteleuropäische Sommerzeit),1562674022061,1.1941166666666667,b2_exp,9
440,,839,98,hier bin ich ein experte,1562674093708,71,21,divers,Yes,NA,NA,NA,not at all,very much,images/stimuli/21.jpg,How well can you identify patterns in this painting?,5,11,Tue Jul 09 2019 14:07:02 GMT+0200 (Mitteleuropäische Sommerzeit),1562674022061,1.1941166666666667,b2_exp,10
440,,969,98,hier bin ich ein experte,1562674093708,71,17,divers,Yes,NA,NA,NA,not at all,very much,images/stimuli/17.jpg,How well can you identify patterns in this painting?,5,11,Tue Jul 09 2019 14:07:02 GMT+0200 (Mitteleuropäische Sommerzeit),1562674022061,1.1941166666666667,b2_exp,11
440,,2634,98,hier bin ich ein experte,1562674093708,71,32,divers,Yes,NA,NA,NA,not at all,very much,images/stimuli/32.jpg,How well can you identify patterns in this painting?,2,11,Tue Jul 09 2019 14:07:02 GMT+0200 (Mitteleuropäische Sommerzeit),1562674022061,1.1941166666666667,b2_exp,12
440,,1962,98,hier bin ich ein experte,1562674093708,71,31,divers,Yes,NA,NA,NA,not at all,very much,images/stimuli/31.jpg,How well can you identify patterns in this painting?,5,11,Tue Jul 09 2019 14:07:02 GMT+0200 (Mitteleuropäische Sommerzeit),1562674022061,1.1941166666666667,b2_exp,13
440,,2084,98,hier bin ich ein experte,1562674093708,71,41,divers,Yes,NA,NA,NA,not at all,very much,images/stimuli/41.jpg,How well can you identify patterns in this painting?,3,11,Tue Jul 09 2019 14:07:02 GMT+0200 (Mitteleuropäische Sommerzeit),1562674022061,1.1941166666666667,b2_exp,14
440,,548,98,hier bin ich ein experte,1562674093708,71,39,divers,Yes,NA,NA,NA,not at all,very much,images/stimuli/39.jpg,How well can you identify patterns in this painting?,3,11,Tue Jul 09 2019 14:07:02 GMT+0200 (Mitteleuropäische Sommerzeit),1562674022061,1.1941166666666667,b2_exp,15
440,,634,98,hier bin ich ein experte,1562674093708,71,22,divers,Yes,NA,NA,NA,not at all,very much,images/stimuli/22.jpg,How well can you identify patterns in this painting?,2,11,Tue Jul 09 2019 14:07:02 GMT+0200 (Mitteleuropäische Sommerzeit),1562674022061,1.1941166666666667,b2_exp,16
440,,979,98,hier bin ich ein experte,1562674093708,71,34,divers,Yes,NA,NA,NA,not at all,very much,images/stimuli/34.jpg,How well can you identify patterns in this painting?,5,11,Tue Jul 09 2019 14:07:02 GMT+0200 (Mitteleuropäische Sommerzeit),1562674022061,1.1941166666666667,b2_exp,17
440,,1793,98,hier bin ich ein experte,1562674093708,71,18,divers,Yes,NA,NA,NA,not at all,very much,images/stimuli/18.jpg,How well can you identify patterns in this painting?,6,11,Tue Jul 09 2019 14:07:02 GMT+0200 (Mitteleuropäische Sommerzeit),1562674022061,1.1941166666666667,b2_exp,18
440,,682,98,hier bin ich ein experte,1562674093708,71,15,divers,Yes,NA,NA,NA,not at all,very much,images/stimuli/15.jpg,How well can you identify patterns in this painting?,1,11,Tue Jul 09 2019 14:07:02 GMT+0200 (Mitteleuropäische Sommerzeit),1562674022061,1.1941166666666667,b2_exp,19
440,,2132,98,hier bin ich ein experte,1562674093708,71,4,divers,Yes,NA,NA,NA,not at all,very much,images/stimuli/4.jpg,How well can you identify patterns in this painting?,5,11,Tue Jul 09 2019 14:07:02 GMT+0200 (Mitteleuropäische Sommerzeit),1562674022061,1.1941166666666667,b2_exp,20
440,,223,98,hier bin ich ein experte,1562674093708,71,42,divers,Yes,NA,NA,NA,not at all,very much,images/stimuli/42.jpg,How well can you identify patterns in this painting?,1,11,Tue Jul 09 2019 14:07:02 GMT+0200 (Mitteleuropäische Sommerzeit),1562674022061,1.1941166666666667,b2_exp,21
440,,236,98,hier bin ich ein experte,1562674093708,71,47,divers,Yes,NA,NA,NA,not at all,very much,images/stimuli/47.jpg,How well can you identify patterns in this painting?,3,11,Tue Jul 09 2019 14:07:02 GMT+0200 (Mitteleuropäische Sommerzeit),1562674022061,1.1941166666666667,b2_exp,22
440,,2329,98,hier bin ich ein experte,1562674093708,71,48,divers,Yes,NA,NA,NA,not at all,very much,images/stimuli/48.jpg,How well can you identify patterns in this painting?,5,11,Tue Jul 09 2019 14:07:02 GMT+0200 (Mitteleuropäische Sommerzeit),1562674022061,1.1941166666666667,b2_exp,23
440,,2910,98,hier bin ich ein experte,1562674093708,71,54,divers,Yes,NA,NA,NA,not at all,very much,images/stimuli/54.jpg,How well can you identify patterns in this painting?,1,11,Tue Jul 09 2019 14:07:02 GMT+0200 (Mitteleuropäische Sommerzeit),1562674022061,1.1941166666666667,b2_exp,24
440,,1267,98,hier bin ich ein experte,1562674093708,71,12,divers,Yes,NA,NA,NA,not at all,very much,images/stimuli/12.jpg,How well can you identify patterns in this painting?,1,11,Tue Jul 09 2019 14:07:02 GMT+0200 (Mitteleuropäische Sommerzeit),1562674022061,1.1941166666666667,b2_exp,25
440,,206,98,hier bin ich ein experte,1562674093708,71,9,divers,Yes,NA,NA,NA,not at all,very much,images/stimuli/9.jpg,How well can you identify patterns in this painting?,3,11,Tue Jul 09 2019 14:07:02 GMT+0200 (Mitteleuropäische Sommerzeit),1562674022061,1.1941166666666667,b2_exp,26
440,,587,98,hier bin ich ein experte,1562674093708,71,40,divers,Yes,NA,NA,NA,not at all,very much,images/stimuli/40.jpg,How well can you identify patterns in this painting?,6,11,Tue Jul 09 2019 14:07:02 GMT+0200 (Mitteleuropäische Sommerzeit),1562674022061,1.1941166666666667,b2_exp,27
440,,530,98,hier bin ich ein experte,1562674093708,71,36,divers,Yes,NA,NA,NA,not at all,very much,images/stimuli/36.jpg,How well can you identify patterns in this painting?,1,11,Tue Jul 09 2019 14:07:02 GMT+0200 (Mitteleuropäische Sommerzeit),1562674022061,1.1941166666666667,b2_exp,28
440,,1406,98,hier bin ich ein experte,1562674093708,71,3,divers,Yes,NA,NA,NA,not at all,very much,images/stimuli/3.jpg,How well can you identify patterns in this painting?,1,11,Tue Jul 09 2019 14:07:02 GMT+0200 (Mitteleuropäische Sommerzeit),1562674022061,1.1941166666666667,b2_exp,29
440,,1637,98,hier bin ich ein experte,1562674093708,71,33,divers,Yes,NA,NA,NA,not at all,very much,images/stimuli/33.jpg,How well can you identify patterns in this painting?,1,11,Tue Jul 09 2019 14:07:02 GMT+0200 (Mitteleuropäische Sommerzeit),1562674022061,1.1941166666666667,b2_exp,30
440,,1041,98,hier bin ich ein experte,1562674093708,71,35,divers,Yes,NA,NA,NA,not at all,very much,images/stimuli/35.jpg,How well can you identify patterns in this painting?,3,11,Tue Jul 09 2019 14:07:02 GMT+0200 (Mitteleuropäische Sommerzeit),1562674022061,1.1941166666666667,b2_exp,31
440,,2234,98,hier bin ich ein experte,1562674093708,71,29,divers,Yes,NA,NA,NA,not at all,very much,images/stimuli/29.jpg,How well can you identify patterns in this painting?,4,11,Tue Jul 09 2019 14:07:02 GMT+0200 (Mitteleuropäische Sommerzeit),1562674022061,1.1941166666666667,b2_exp,32
440,,1837,98,hier bin ich ein experte,1562674093708,71,5,divers,Yes,NA,NA,NA,not at all,very much,images/stimuli/5.jpg,How well can you identify patterns in this painting?,7,11,Tue Jul 09 2019 14:07:02 GMT+0200 (Mitteleuropäische Sommerzeit),1562674022061,1.1941166666666667,b2_exp,33
440,,487,98,hier bin ich ein experte,1562674093708,71,53,divers,Yes,NA,NA,NA,not at all,very much,images/stimuli/53.jpg,How well can you identify patterns in this painting?,1,11,Tue Jul 09 2019 14:07:02 GMT+0200 (Mitteleuropäische Sommerzeit),1562674022061,1.1941166666666667,b2_exp,34
440,,1890,98,hier bin ich ein experte,1562674093708,71,44,divers,Yes,NA,NA,NA,not at all,very much,images/stimuli/44.jpg,How well can you identify patterns in this painting?,5,11,Tue Jul 09 2019 14:07:02 GMT+0200 (Mitteleuropäische Sommerzeit),1562674022061,1.1941166666666667,b2_exp,35
440,,918,98,hier bin ich ein experte,1562674093708,71,27,divers,Yes,NA,NA,NA,not at all,very much,images/stimuli/27.jpg,How well can you identify patterns in this painting?,2,11,Tue Jul 09 2019 14:07:02 GMT+0200 (Mitteleuropäische Sommerzeit),1562674022061,1.1941166666666667,b2_exp,36
440,,1144,98,hier bin ich ein experte,1562674093708,71,45,divers,Yes,NA,NA,NA,not at all,very much,images/stimuli/45.jpg,How well can you identify patterns in this painting?,4,11,Tue Jul 09 2019 14:07:02 GMT+0200 (Mitteleuropäische Sommerzeit),1562674022061,1.1941166666666667,b2_exp,37
440,,2154,98,hier bin ich ein experte,1562674093708,71,23,divers,Yes,NA,NA,NA,not at all,very much,images/stimuli/23.jpg,How well can you identify patterns in this painting?,7,11,Tue Jul 09 2019 14:07:02 GMT+0200 (Mitteleuropäische Sommerzeit),1562674022061,1.1941166666666667,b2_exp,38
440,,778,98,hier bin ich ein experte,1562674093708,71,1,divers,Yes,NA,NA,NA,not at all,very much,images/stimuli/1.jpg,How well can you identify patterns in this painting?,6,11,Tue Jul 09 2019 14:07:02 GMT+0200 (Mitteleuropäische Sommerzeit),1562674022061,1.1941166666666667,b2_exp,39
440,,1321,98,hier bin ich ein experte,1562674093708,71,51,divers,Yes,NA,NA,NA,not at all,very much,images/stimuli/51.jpg,How well can you identify patterns in this painting?,4,11,Tue Jul 09 2019 14:07:02 GMT+0200 (Mitteleuropäische Sommerzeit),1562674022061,1.1941166666666667,b2_exp,40
440,,2628,98,hier bin ich ein experte,1562674093708,71,6,divers,Yes,NA,NA,NA,not at all,very much,images/stimuli/6.jpg,How well can you identify patterns in this painting?,6,11,Tue Jul 09 2019 14:07:02 GMT+0200 (Mitteleuropäische Sommerzeit),1562674022061,1.1941166666666667,b2_exp,41
440,,1413,98,hier bin ich ein experte,1562674093708,71,46,divers,Yes,NA,NA,NA,not at all,very much,images/stimuli/46.jpg,How well can you identify patterns in this painting?,2,11,Tue Jul 09 2019 14:07:02 GMT+0200 (Mitteleuropäische Sommerzeit),1562674022061,1.1941166666666667,b2_exp,42
440,,2088,98,hier bin ich ein experte,1562674093708,71,19,divers,Yes,NA,NA,NA,not at all,very much,images/stimuli/19.jpg,How well can you identify patterns in this painting?,2,11,Tue Jul 09 2019 14:07:02 GMT+0200 (Mitteleuropäische Sommerzeit),1562674022061,1.1941166666666667,b2_exp,43
440,,2858,98,hier bin ich ein experte,1562674093708,71,43,divers,Yes,NA,NA,NA,not at all,very much,images/stimuli/43.jpg,How well can you identify patterns in this painting?,3,11,Tue Jul 09 2019 14:07:02 GMT+0200 (Mitteleuropäische Sommerzeit),1562674022061,1.1941166666666667,b2_exp,44
440,,2700,98,hier bin ich ein experte,1562674093708,71,25,divers,Yes,NA,NA,NA,not at all,very much,images/stimuli/25.jpg,How well can you identify patterns in this painting?,5,11,Tue Jul 09 2019 14:07:02 GMT+0200 (Mitteleuropäische Sommerzeit),1562674022061,1.1941166666666667,b2_exp,45
440,,1388,98,hier bin ich ein experte,1562674093708,71,50,divers,Yes,NA,NA,NA,not at all,very much,images/stimuli/50.jpg,How well can you identify patterns in this painting?,3,11,Tue Jul 09 2019 14:07:02 GMT+0200 (Mitteleuropäische Sommerzeit),1562674022061,1.1941166666666667,b2_exp,46
440,,1286,98,hier bin ich ein experte,1562674093708,71,13,divers,Yes,NA,NA,NA,not at all,very much,images/stimuli/13.jpg,How well can you identify patterns in this painting?,2,11,Tue Jul 09 2019 14:07:02 GMT+0200 (Mitteleuropäische Sommerzeit),1562674022061,1.1941166666666667,b2_exp,47
440,,1223,98,hier bin ich ein experte,1562674093708,71,8,divers,Yes,NA,NA,NA,not at all,very much,images/stimuli/8.jpg,How well can you identify patterns in this painting?,4,11,Tue Jul 09 2019 14:07:02 GMT+0200 (Mitteleuropäische Sommerzeit),1562674022061,1.1941166666666667,b2_exp,48
440,,2756,98,hier bin ich ein experte,1562674093708,71,60,divers,Yes,NA,NA,NA,not at all,very much,images/stimuli/60.jpg,How well can you identify patterns in this painting?,7,11,Tue Jul 09 2019 14:07:02 GMT+0200 (Mitteleuropäische Sommerzeit),1562674022061,1.1941166666666667,b2_exp,49
440,,351,98,hier bin ich ein experte,1562674093708,71,56,divers,Yes,NA,NA,NA,not at all,very much,images/stimuli/56.jpg,How well can you identify patterns in this painting?,5,11,Tue Jul 09 2019 14:07:02 GMT+0200 (Mitteleuropäische Sommerzeit),1562674022061,1.1941166666666667,b2_exp,50
440,,1892,98,hier bin ich ein experte,1562674093708,71,37,divers,Yes,NA,NA,NA,not at all,very much,images/stimuli/37.jpg,How well can you identify patterns in this painting?,3,11,Tue Jul 09 2019 14:07:02 GMT+0200 (Mitteleuropäische Sommerzeit),1562674022061,1.1941166666666667,b2_exp,51
440,,1240,98,hier bin ich ein experte,1562674093708,71,49,divers,Yes,NA,NA,NA,not at all,very much,images/stimuli/49.jpg,How well can you identify patterns in this painting?,4,11,Tue Jul 09 2019 14:07:02 GMT+0200 (Mitteleuropäische Sommerzeit),1562674022061,1.1941166666666667,b2_exp,52
440,,490,98,hier bin ich ein experte,1562674093708,71,2,divers,Yes,NA,NA,NA,not at all,very much,images/stimuli/2.jpg,How well can you identify patterns in this painting?,1,11,Tue Jul 09 2019 14:07:02 GMT+0200 (Mitteleuropäische Sommerzeit),1562674022061,1.1941166666666667,b2_exp,53
440,,1930,98,hier bin ich ein experte,1562674093708,71,59,divers,Yes,NA,NA,NA,not at all,very much,images/stimuli/59.jpg,How well can you identify patterns in this painting?,7,11,Tue Jul 09 2019 14:07:02 GMT+0200 (Mitteleuropäische Sommerzeit),1562674022061,1.1941166666666667,b2_exp,54
440,,559,98,hier bin ich ein experte,1562674093708,71,20,divers,Yes,NA,NA,NA,not at all,very much,images/stimuli/20.jpg,How well can you identify patterns in this painting?,5,11,Tue Jul 09 2019 14:07:02 GMT+0200 (Mitteleuropäische Sommerzeit),1562674022061,1.1941166666666667,b2_exp,55
