submission_id,QUD,RT,age,comments,endTime,experiment_id,fileID,gender,is_expert,min_chars,option1,option2,optionLeft,optionRight,picture,question,response,snellen_result,startDate,startTime,timeSpent,trial_name,trial_number
566,,57807,20,,1562946371589,71,NA,female,No,0,NA,NA,NA,NA,images/snellen/snellen.png,Which row is the last one where you can recognize <strong>all letters</strong>? Only type in the number of this row (between 1 and 11): ,9,9,Fri Jul 12 2019 17:34:17 GMT+0200 (Mitteleuropäische Sommerzeit),1562945657112,11.90795,test_snellen,1
566,,13595,20,,1562946371589,71,NA,female,No,NA,Yes,No,NA,NA,NA,Do you consider yourself an <strong>expert in cubist art</strong> or were ever engaged in any kind of cubist art education?,No,9,Fri Jul 12 2019 17:34:17 GMT+0200 (Mitteleuropäische Sommerzeit),1562945657112,11.90795,b0_expert,1
566,,14410,20,,1562946371589,71,26,female,No,NA,NA,NA,not at all,very much,images/stimuli/26.jpg,How much do you like this painting?,6,9,Fri Jul 12 2019 17:34:17 GMT+0200 (Mitteleuropäische Sommerzeit),1562945657112,11.90795,b1_exp,1
566,,4927,20,,1562946371589,71,3,female,No,NA,NA,NA,not at all,very much,images/stimuli/3.jpg,How much do you like this painting?,5,9,Fri Jul 12 2019 17:34:17 GMT+0200 (Mitteleuropäische Sommerzeit),1562945657112,11.90795,b1_exp,2
566,,4493,20,,1562946371589,71,11,female,No,NA,NA,NA,not at all,very much,images/stimuli/11.jpg,How much do you like this painting?,3,9,Fri Jul 12 2019 17:34:17 GMT+0200 (Mitteleuropäische Sommerzeit),1562945657112,11.90795,b1_exp,3
566,,2380,20,,1562946371589,71,4,female,No,NA,NA,NA,not at all,very much,images/stimuli/4.jpg,How much do you like this painting?,3,9,Fri Jul 12 2019 17:34:17 GMT+0200 (Mitteleuropäische Sommerzeit),1562945657112,11.90795,b1_exp,4
566,,2907,20,,1562946371589,71,22,female,No,NA,NA,NA,not at all,very much,images/stimuli/22.jpg,How much do you like this painting?,1,9,Fri Jul 12 2019 17:34:17 GMT+0200 (Mitteleuropäische Sommerzeit),1562945657112,11.90795,b1_exp,5
566,,6602,20,,1562946371589,71,33,female,No,NA,NA,NA,not at all,very much,images/stimuli/33.jpg,How much do you like this painting?,5,9,Fri Jul 12 2019 17:34:17 GMT+0200 (Mitteleuropäische Sommerzeit),1562945657112,11.90795,b1_exp,6
566,,1927,20,,1562946371589,71,17,female,No,NA,NA,NA,not at all,very much,images/stimuli/17.jpg,How much do you like this painting?,4,9,Fri Jul 12 2019 17:34:17 GMT+0200 (Mitteleuropäische Sommerzeit),1562945657112,11.90795,b1_exp,7
566,,1744,20,,1562946371589,71,60,female,No,NA,NA,NA,not at all,very much,images/stimuli/60.jpg,How much do you like this painting?,4,9,Fri Jul 12 2019 17:34:17 GMT+0200 (Mitteleuropäische Sommerzeit),1562945657112,11.90795,b1_exp,8
566,,3605,20,,1562946371589,71,23,female,No,NA,NA,NA,not at all,very much,images/stimuli/23.jpg,How much do you like this painting?,6,9,Fri Jul 12 2019 17:34:17 GMT+0200 (Mitteleuropäische Sommerzeit),1562945657112,11.90795,b1_exp,9
566,,2300,20,,1562946371589,71,59,female,No,NA,NA,NA,not at all,very much,images/stimuli/59.jpg,How much do you like this painting?,4,9,Fri Jul 12 2019 17:34:17 GMT+0200 (Mitteleuropäische Sommerzeit),1562945657112,11.90795,b1_exp,10
566,,7572,20,,1562946371589,71,57,female,No,NA,NA,NA,not at all,very much,images/stimuli/57.jpg,How much do you like this painting?,3,9,Fri Jul 12 2019 17:34:17 GMT+0200 (Mitteleuropäische Sommerzeit),1562945657112,11.90795,b1_exp,11
566,,3594,20,,1562946371589,71,36,female,No,NA,NA,NA,not at all,very much,images/stimuli/36.jpg,How much do you like this painting?,4,9,Fri Jul 12 2019 17:34:17 GMT+0200 (Mitteleuropäische Sommerzeit),1562945657112,11.90795,b1_exp,12
566,,2149,20,,1562946371589,71,40,female,No,NA,NA,NA,not at all,very much,images/stimuli/40.jpg,How much do you like this painting?,2,9,Fri Jul 12 2019 17:34:17 GMT+0200 (Mitteleuropäische Sommerzeit),1562945657112,11.90795,b1_exp,13
566,,2868,20,,1562946371589,71,38,female,No,NA,NA,NA,not at all,very much,images/stimuli/38.jpg,How much do you like this painting?,4,9,Fri Jul 12 2019 17:34:17 GMT+0200 (Mitteleuropäische Sommerzeit),1562945657112,11.90795,b1_exp,14
566,,4128,20,,1562946371589,71,32,female,No,NA,NA,NA,not at all,very much,images/stimuli/32.jpg,How much do you like this painting?,4,9,Fri Jul 12 2019 17:34:17 GMT+0200 (Mitteleuropäische Sommerzeit),1562945657112,11.90795,b1_exp,15
566,,2877,20,,1562946371589,71,34,female,No,NA,NA,NA,not at all,very much,images/stimuli/34.jpg,How much do you like this painting?,5,9,Fri Jul 12 2019 17:34:17 GMT+0200 (Mitteleuropäische Sommerzeit),1562945657112,11.90795,b1_exp,16
566,,2198,20,,1562946371589,71,48,female,No,NA,NA,NA,not at all,very much,images/stimuli/48.jpg,How much do you like this painting?,2,9,Fri Jul 12 2019 17:34:17 GMT+0200 (Mitteleuropäische Sommerzeit),1562945657112,11.90795,b1_exp,17
566,,2484,20,,1562946371589,71,52,female,No,NA,NA,NA,not at all,very much,images/stimuli/52.jpg,How much do you like this painting?,1,9,Fri Jul 12 2019 17:34:17 GMT+0200 (Mitteleuropäische Sommerzeit),1562945657112,11.90795,b1_exp,18
566,,1290,20,,1562946371589,71,14,female,No,NA,NA,NA,not at all,very much,images/stimuli/14.jpg,How much do you like this painting?,1,9,Fri Jul 12 2019 17:34:17 GMT+0200 (Mitteleuropäische Sommerzeit),1562945657112,11.90795,b1_exp,19
566,,2038,20,,1562946371589,71,55,female,No,NA,NA,NA,not at all,very much,images/stimuli/55.jpg,How much do you like this painting?,1,9,Fri Jul 12 2019 17:34:17 GMT+0200 (Mitteleuropäische Sommerzeit),1562945657112,11.90795,b1_exp,20
566,,937,20,,1562946371589,71,44,female,No,NA,NA,NA,not at all,very much,images/stimuli/44.jpg,How much do you like this painting?,1,9,Fri Jul 12 2019 17:34:17 GMT+0200 (Mitteleuropäische Sommerzeit),1562945657112,11.90795,b1_exp,21
566,,2584,20,,1562946371589,71,1,female,No,NA,NA,NA,not at all,very much,images/stimuli/1.jpg,How much do you like this painting?,4,9,Fri Jul 12 2019 17:34:17 GMT+0200 (Mitteleuropäische Sommerzeit),1562945657112,11.90795,b1_exp,22
566,,2571,20,,1562946371589,71,19,female,No,NA,NA,NA,not at all,very much,images/stimuli/19.jpg,How much do you like this painting?,5,9,Fri Jul 12 2019 17:34:17 GMT+0200 (Mitteleuropäische Sommerzeit),1562945657112,11.90795,b1_exp,23
566,,3068,20,,1562946371589,71,16,female,No,NA,NA,NA,not at all,very much,images/stimuli/16.jpg,How much do you like this painting?,3,9,Fri Jul 12 2019 17:34:17 GMT+0200 (Mitteleuropäische Sommerzeit),1562945657112,11.90795,b1_exp,24
566,,6881,20,,1562946371589,71,51,female,No,NA,NA,NA,not at all,very much,images/stimuli/51.jpg,How much do you like this painting?,2,9,Fri Jul 12 2019 17:34:17 GMT+0200 (Mitteleuropäische Sommerzeit),1562945657112,11.90795,b1_exp,25
566,,6862,20,,1562946371589,71,46,female,No,NA,NA,NA,not at all,very much,images/stimuli/46.jpg,How much do you like this painting?,1,9,Fri Jul 12 2019 17:34:17 GMT+0200 (Mitteleuropäische Sommerzeit),1562945657112,11.90795,b1_exp,26
566,,2601,20,,1562946371589,71,50,female,No,NA,NA,NA,not at all,very much,images/stimuli/50.jpg,How much do you like this painting?,1,9,Fri Jul 12 2019 17:34:17 GMT+0200 (Mitteleuropäische Sommerzeit),1562945657112,11.90795,b1_exp,27
566,,5266,20,,1562946371589,71,54,female,No,NA,NA,NA,not at all,very much,images/stimuli/54.jpg,How much do you like this painting?,3,9,Fri Jul 12 2019 17:34:17 GMT+0200 (Mitteleuropäische Sommerzeit),1562945657112,11.90795,b1_exp,28
566,,2511,20,,1562946371589,71,20,female,No,NA,NA,NA,not at all,very much,images/stimuli/20.jpg,How much do you like this painting?,2,9,Fri Jul 12 2019 17:34:17 GMT+0200 (Mitteleuropäische Sommerzeit),1562945657112,11.90795,b1_exp,29
566,,2784,20,,1562946371589,71,49,female,No,NA,NA,NA,not at all,very much,images/stimuli/49.jpg,How much do you like this painting?,5,9,Fri Jul 12 2019 17:34:17 GMT+0200 (Mitteleuropäische Sommerzeit),1562945657112,11.90795,b1_exp,30
566,,1984,20,,1562946371589,71,42,female,No,NA,NA,NA,not at all,very much,images/stimuli/42.jpg,How much do you like this painting?,4,9,Fri Jul 12 2019 17:34:17 GMT+0200 (Mitteleuropäische Sommerzeit),1562945657112,11.90795,b1_exp,31
566,,4247,20,,1562946371589,71,6,female,No,NA,NA,NA,not at all,very much,images/stimuli/6.jpg,How much do you like this painting?,7,9,Fri Jul 12 2019 17:34:17 GMT+0200 (Mitteleuropäische Sommerzeit),1562945657112,11.90795,b1_exp,32
566,,3651,20,,1562946371589,71,37,female,No,NA,NA,NA,not at all,very much,images/stimuli/37.jpg,How much do you like this painting?,3,9,Fri Jul 12 2019 17:34:17 GMT+0200 (Mitteleuropäische Sommerzeit),1562945657112,11.90795,b1_exp,33
566,,6566,20,,1562946371589,71,25,female,No,NA,NA,NA,not at all,very much,images/stimuli/25.jpg,How much do you like this painting?,5,9,Fri Jul 12 2019 17:34:17 GMT+0200 (Mitteleuropäische Sommerzeit),1562945657112,11.90795,b1_exp,34
566,,2167,20,,1562946371589,71,56,female,No,NA,NA,NA,not at all,very much,images/stimuli/56.jpg,How much do you like this painting?,2,9,Fri Jul 12 2019 17:34:17 GMT+0200 (Mitteleuropäische Sommerzeit),1562945657112,11.90795,b1_exp,35
566,,6256,20,,1562946371589,71,21,female,No,NA,NA,NA,not at all,very much,images/stimuli/21.jpg,How much do you like this painting?,2,9,Fri Jul 12 2019 17:34:17 GMT+0200 (Mitteleuropäische Sommerzeit),1562945657112,11.90795,b1_exp,36
566,,5737,20,,1562946371589,71,18,female,No,NA,NA,NA,not at all,very much,images/stimuli/18.jpg,How much do you like this painting?,2,9,Fri Jul 12 2019 17:34:17 GMT+0200 (Mitteleuropäische Sommerzeit),1562945657112,11.90795,b1_exp,37
566,,3196,20,,1562946371589,71,10,female,No,NA,NA,NA,not at all,very much,images/stimuli/10.jpg,How much do you like this painting?,1,9,Fri Jul 12 2019 17:34:17 GMT+0200 (Mitteleuropäische Sommerzeit),1562945657112,11.90795,b1_exp,38
566,,2379,20,,1562946371589,71,5,female,No,NA,NA,NA,not at all,very much,images/stimuli/5.jpg,How much do you like this painting?,1,9,Fri Jul 12 2019 17:34:17 GMT+0200 (Mitteleuropäische Sommerzeit),1562945657112,11.90795,b1_exp,39
566,,1917,20,,1562946371589,71,31,female,No,NA,NA,NA,not at all,very much,images/stimuli/31.jpg,How much do you like this painting?,1,9,Fri Jul 12 2019 17:34:17 GMT+0200 (Mitteleuropäische Sommerzeit),1562945657112,11.90795,b1_exp,40
566,,2863,20,,1562946371589,71,29,female,No,NA,NA,NA,not at all,very much,images/stimuli/29.jpg,How much do you like this painting?,3,9,Fri Jul 12 2019 17:34:17 GMT+0200 (Mitteleuropäische Sommerzeit),1562945657112,11.90795,b1_exp,41
566,,2147,20,,1562946371589,71,13,female,No,NA,NA,NA,not at all,very much,images/stimuli/13.jpg,How much do you like this painting?,2,9,Fri Jul 12 2019 17:34:17 GMT+0200 (Mitteleuropäische Sommerzeit),1562945657112,11.90795,b1_exp,42
566,,2420,20,,1562946371589,71,53,female,No,NA,NA,NA,not at all,very much,images/stimuli/53.jpg,How much do you like this painting?,1,9,Fri Jul 12 2019 17:34:17 GMT+0200 (Mitteleuropäische Sommerzeit),1562945657112,11.90795,b1_exp,43
566,,4377,20,,1562946371589,71,27,female,No,NA,NA,NA,not at all,very much,images/stimuli/27.jpg,How much do you like this painting?,1,9,Fri Jul 12 2019 17:34:17 GMT+0200 (Mitteleuropäische Sommerzeit),1562945657112,11.90795,b1_exp,44
566,,1209,20,,1562946371589,71,43,female,No,NA,NA,NA,not at all,very much,images/stimuli/43.jpg,How much do you like this painting?,1,9,Fri Jul 12 2019 17:34:17 GMT+0200 (Mitteleuropäische Sommerzeit),1562945657112,11.90795,b1_exp,45
566,,2067,20,,1562946371589,71,24,female,No,NA,NA,NA,not at all,very much,images/stimuli/24.jpg,How much do you like this painting?,1,9,Fri Jul 12 2019 17:34:17 GMT+0200 (Mitteleuropäische Sommerzeit),1562945657112,11.90795,b1_exp,46
566,,2985,20,,1562946371589,71,2,female,No,NA,NA,NA,not at all,very much,images/stimuli/2.jpg,How much do you like this painting?,2,9,Fri Jul 12 2019 17:34:17 GMT+0200 (Mitteleuropäische Sommerzeit),1562945657112,11.90795,b1_exp,47
566,,4053,20,,1562946371589,71,47,female,No,NA,NA,NA,not at all,very much,images/stimuli/47.jpg,How much do you like this painting?,5,9,Fri Jul 12 2019 17:34:17 GMT+0200 (Mitteleuropäische Sommerzeit),1562945657112,11.90795,b1_exp,48
566,,2510,20,,1562946371589,71,39,female,No,NA,NA,NA,not at all,very much,images/stimuli/39.jpg,How much do you like this painting?,2,9,Fri Jul 12 2019 17:34:17 GMT+0200 (Mitteleuropäische Sommerzeit),1562945657112,11.90795,b1_exp,49
566,,2722,20,,1562946371589,71,12,female,No,NA,NA,NA,not at all,very much,images/stimuli/12.jpg,How much do you like this painting?,3,9,Fri Jul 12 2019 17:34:17 GMT+0200 (Mitteleuropäische Sommerzeit),1562945657112,11.90795,b1_exp,50
566,,2752,20,,1562946371589,71,45,female,No,NA,NA,NA,not at all,very much,images/stimuli/45.jpg,How much do you like this painting?,2,9,Fri Jul 12 2019 17:34:17 GMT+0200 (Mitteleuropäische Sommerzeit),1562945657112,11.90795,b1_exp,51
566,,2179,20,,1562946371589,71,35,female,No,NA,NA,NA,not at all,very much,images/stimuli/35.jpg,How much do you like this painting?,1,9,Fri Jul 12 2019 17:34:17 GMT+0200 (Mitteleuropäische Sommerzeit),1562945657112,11.90795,b1_exp,52
566,,1633,20,,1562946371589,71,58,female,No,NA,NA,NA,not at all,very much,images/stimuli/58.jpg,How much do you like this painting?,1,9,Fri Jul 12 2019 17:34:17 GMT+0200 (Mitteleuropäische Sommerzeit),1562945657112,11.90795,b1_exp,53
566,,1673,20,,1562946371589,71,15,female,No,NA,NA,NA,not at all,very much,images/stimuli/15.jpg,How much do you like this painting?,1,9,Fri Jul 12 2019 17:34:17 GMT+0200 (Mitteleuropäische Sommerzeit),1562945657112,11.90795,b1_exp,54
566,,2309,20,,1562946371589,71,7,female,No,NA,NA,NA,not at all,very much,images/stimuli/7.jpg,How much do you like this painting?,1,9,Fri Jul 12 2019 17:34:17 GMT+0200 (Mitteleuropäische Sommerzeit),1562945657112,11.90795,b1_exp,55
566,,2631,20,,1562946371589,71,28,female,No,NA,NA,NA,not at all,very much,images/stimuli/28.jpg,How much do you like this painting?,2,9,Fri Jul 12 2019 17:34:17 GMT+0200 (Mitteleuropäische Sommerzeit),1562945657112,11.90795,b1_exp,56
566,,4415,20,,1562946371589,71,8,female,No,NA,NA,NA,not at all,very much,images/stimuli/8.jpg,How much do you like this painting?,2,9,Fri Jul 12 2019 17:34:17 GMT+0200 (Mitteleuropäische Sommerzeit),1562945657112,11.90795,b1_exp,57
566,,1965,20,,1562946371589,71,41,female,No,NA,NA,NA,not at all,very much,images/stimuli/41.jpg,How much do you like this painting?,1,9,Fri Jul 12 2019 17:34:17 GMT+0200 (Mitteleuropäische Sommerzeit),1562945657112,11.90795,b1_exp,58
566,,2923,20,,1562946371589,71,30,female,No,NA,NA,NA,not at all,very much,images/stimuli/30.jpg,How much do you like this painting?,3,9,Fri Jul 12 2019 17:34:17 GMT+0200 (Mitteleuropäische Sommerzeit),1562945657112,11.90795,b1_exp,59
566,,5544,20,,1562946371589,71,9,female,No,NA,NA,NA,not at all,very much,images/stimuli/9.jpg,How much do you like this painting?,3,9,Fri Jul 12 2019 17:34:17 GMT+0200 (Mitteleuropäische Sommerzeit),1562945657112,11.90795,b1_exp,60
566,,8626,20,,1562946371589,71,12,female,No,NA,NA,NA,not at all,very much,images/stimuli/12.jpg,How well can you identify patterns in this painting?,3,9,Fri Jul 12 2019 17:34:17 GMT+0200 (Mitteleuropäische Sommerzeit),1562945657112,11.90795,b2_exp,1
566,,3278,20,,1562946371589,71,8,female,No,NA,NA,NA,not at all,very much,images/stimuli/8.jpg,How well can you identify patterns in this painting?,4,9,Fri Jul 12 2019 17:34:17 GMT+0200 (Mitteleuropäische Sommerzeit),1562945657112,11.90795,b2_exp,2
566,,2320,20,,1562946371589,71,3,female,No,NA,NA,NA,not at all,very much,images/stimuli/3.jpg,How well can you identify patterns in this painting?,2,9,Fri Jul 12 2019 17:34:17 GMT+0200 (Mitteleuropäische Sommerzeit),1562945657112,11.90795,b2_exp,3
566,,5876,20,,1562946371589,71,16,female,No,NA,NA,NA,not at all,very much,images/stimuli/16.jpg,How well can you identify patterns in this painting?,2,9,Fri Jul 12 2019 17:34:17 GMT+0200 (Mitteleuropäische Sommerzeit),1562945657112,11.90795,b2_exp,4
566,,2423,20,,1562946371589,71,11,female,No,NA,NA,NA,not at all,very much,images/stimuli/11.jpg,How well can you identify patterns in this painting?,1,9,Fri Jul 12 2019 17:34:17 GMT+0200 (Mitteleuropäische Sommerzeit),1562945657112,11.90795,b2_exp,5
566,,7482,20,,1562946371589,71,60,female,No,NA,NA,NA,not at all,very much,images/stimuli/60.jpg,How well can you identify patterns in this painting?,3,9,Fri Jul 12 2019 17:34:17 GMT+0200 (Mitteleuropäische Sommerzeit),1562945657112,11.90795,b2_exp,6
566,,2855,20,,1562946371589,71,54,female,No,NA,NA,NA,not at all,very much,images/stimuli/54.jpg,How well can you identify patterns in this painting?,2,9,Fri Jul 12 2019 17:34:17 GMT+0200 (Mitteleuropäische Sommerzeit),1562945657112,11.90795,b2_exp,7
566,,4919,20,,1562946371589,71,4,female,No,NA,NA,NA,not at all,very much,images/stimuli/4.jpg,How well can you identify patterns in this painting?,4,9,Fri Jul 12 2019 17:34:17 GMT+0200 (Mitteleuropäische Sommerzeit),1562945657112,11.90795,b2_exp,8
566,,4800,20,,1562946371589,71,6,female,No,NA,NA,NA,not at all,very much,images/stimuli/6.jpg,How well can you identify patterns in this painting?,6,9,Fri Jul 12 2019 17:34:17 GMT+0200 (Mitteleuropäische Sommerzeit),1562945657112,11.90795,b2_exp,9
566,,11066,20,,1562946371589,71,31,female,No,NA,NA,NA,not at all,very much,images/stimuli/31.jpg,How well can you identify patterns in this painting?,3,9,Fri Jul 12 2019 17:34:17 GMT+0200 (Mitteleuropäische Sommerzeit),1562945657112,11.90795,b2_exp,10
566,,3449,20,,1562946371589,71,55,female,No,NA,NA,NA,not at all,very much,images/stimuli/55.jpg,How well can you identify patterns in this painting?,2,9,Fri Jul 12 2019 17:34:17 GMT+0200 (Mitteleuropäische Sommerzeit),1562945657112,11.90795,b2_exp,11
566,,4586,20,,1562946371589,71,1,female,No,NA,NA,NA,not at all,very much,images/stimuli/1.jpg,How well can you identify patterns in this painting?,3,9,Fri Jul 12 2019 17:34:17 GMT+0200 (Mitteleuropäische Sommerzeit),1562945657112,11.90795,b2_exp,12
566,,4689,20,,1562946371589,71,30,female,No,NA,NA,NA,not at all,very much,images/stimuli/30.jpg,How well can you identify patterns in this painting?,5,9,Fri Jul 12 2019 17:34:17 GMT+0200 (Mitteleuropäische Sommerzeit),1562945657112,11.90795,b2_exp,13
566,,10748,20,,1562946371589,71,22,female,No,NA,NA,NA,not at all,very much,images/stimuli/22.jpg,How well can you identify patterns in this painting?,5,9,Fri Jul 12 2019 17:34:17 GMT+0200 (Mitteleuropäische Sommerzeit),1562945657112,11.90795,b2_exp,14
566,,4181,20,,1562946371589,71,42,female,No,NA,NA,NA,not at all,very much,images/stimuli/42.jpg,How well can you identify patterns in this painting?,4,9,Fri Jul 12 2019 17:34:17 GMT+0200 (Mitteleuropäische Sommerzeit),1562945657112,11.90795,b2_exp,15
566,,5283,20,,1562946371589,71,38,female,No,NA,NA,NA,not at all,very much,images/stimuli/38.jpg,How well can you identify patterns in this painting?,6,9,Fri Jul 12 2019 17:34:17 GMT+0200 (Mitteleuropäische Sommerzeit),1562945657112,11.90795,b2_exp,16
566,,4456,20,,1562946371589,71,32,female,No,NA,NA,NA,not at all,very much,images/stimuli/32.jpg,How well can you identify patterns in this painting?,5,9,Fri Jul 12 2019 17:34:17 GMT+0200 (Mitteleuropäische Sommerzeit),1562945657112,11.90795,b2_exp,17
566,,6109,20,,1562946371589,71,20,female,No,NA,NA,NA,not at all,very much,images/stimuli/20.jpg,How well can you identify patterns in this painting?,3,9,Fri Jul 12 2019 17:34:17 GMT+0200 (Mitteleuropäische Sommerzeit),1562945657112,11.90795,b2_exp,18
566,,4616,20,,1562946371589,71,41,female,No,NA,NA,NA,not at all,very much,images/stimuli/41.jpg,How well can you identify patterns in this painting?,2,9,Fri Jul 12 2019 17:34:17 GMT+0200 (Mitteleuropäische Sommerzeit),1562945657112,11.90795,b2_exp,19
566,,3770,20,,1562946371589,71,7,female,No,NA,NA,NA,not at all,very much,images/stimuli/7.jpg,How well can you identify patterns in this painting?,3,9,Fri Jul 12 2019 17:34:17 GMT+0200 (Mitteleuropäische Sommerzeit),1562945657112,11.90795,b2_exp,20
566,,4131,20,,1562946371589,71,13,female,No,NA,NA,NA,not at all,very much,images/stimuli/13.jpg,How well can you identify patterns in this painting?,2,9,Fri Jul 12 2019 17:34:17 GMT+0200 (Mitteleuropäische Sommerzeit),1562945657112,11.90795,b2_exp,21
566,,4336,20,,1562946371589,71,24,female,No,NA,NA,NA,not at all,very much,images/stimuli/24.jpg,How well can you identify patterns in this painting?,2,9,Fri Jul 12 2019 17:34:17 GMT+0200 (Mitteleuropäische Sommerzeit),1562945657112,11.90795,b2_exp,22
566,,6229,20,,1562946371589,71,14,female,No,NA,NA,NA,not at all,very much,images/stimuli/14.jpg,How well can you identify patterns in this painting?,1,9,Fri Jul 12 2019 17:34:17 GMT+0200 (Mitteleuropäische Sommerzeit),1562945657112,11.90795,b2_exp,23
566,,4156,20,,1562946371589,71,36,female,No,NA,NA,NA,not at all,very much,images/stimuli/36.jpg,How well can you identify patterns in this painting?,2,9,Fri Jul 12 2019 17:34:17 GMT+0200 (Mitteleuropäische Sommerzeit),1562945657112,11.90795,b2_exp,24
566,,4089,20,,1562946371589,71,17,female,No,NA,NA,NA,not at all,very much,images/stimuli/17.jpg,How well can you identify patterns in this painting?,3,9,Fri Jul 12 2019 17:34:17 GMT+0200 (Mitteleuropäische Sommerzeit),1562945657112,11.90795,b2_exp,25
566,,2035,20,,1562946371589,71,50,female,No,NA,NA,NA,not at all,very much,images/stimuli/50.jpg,How well can you identify patterns in this painting?,2,9,Fri Jul 12 2019 17:34:17 GMT+0200 (Mitteleuropäische Sommerzeit),1562945657112,11.90795,b2_exp,26
566,,5815,20,,1562946371589,71,59,female,No,NA,NA,NA,not at all,very much,images/stimuli/59.jpg,How well can you identify patterns in this painting?,4,9,Fri Jul 12 2019 17:34:17 GMT+0200 (Mitteleuropäische Sommerzeit),1562945657112,11.90795,b2_exp,27
566,,5544,20,,1562946371589,71,47,female,No,NA,NA,NA,not at all,very much,images/stimuli/47.jpg,How well can you identify patterns in this painting?,7,9,Fri Jul 12 2019 17:34:17 GMT+0200 (Mitteleuropäische Sommerzeit),1562945657112,11.90795,b2_exp,28
566,,5321,20,,1562946371589,71,48,female,No,NA,NA,NA,not at all,very much,images/stimuli/48.jpg,How well can you identify patterns in this painting?,4,9,Fri Jul 12 2019 17:34:17 GMT+0200 (Mitteleuropäische Sommerzeit),1562945657112,11.90795,b2_exp,29
566,,4061,20,,1562946371589,71,28,female,No,NA,NA,NA,not at all,very much,images/stimuli/28.jpg,How well can you identify patterns in this painting?,3,9,Fri Jul 12 2019 17:34:17 GMT+0200 (Mitteleuropäische Sommerzeit),1562945657112,11.90795,b2_exp,30
566,,3408,20,,1562946371589,71,37,female,No,NA,NA,NA,not at all,very much,images/stimuli/37.jpg,How well can you identify patterns in this painting?,2,9,Fri Jul 12 2019 17:34:17 GMT+0200 (Mitteleuropäische Sommerzeit),1562945657112,11.90795,b2_exp,31
566,,2283,20,,1562946371589,71,2,female,No,NA,NA,NA,not at all,very much,images/stimuli/2.jpg,How well can you identify patterns in this painting?,4,9,Fri Jul 12 2019 17:34:17 GMT+0200 (Mitteleuropäische Sommerzeit),1562945657112,11.90795,b2_exp,32
566,,4698,20,,1562946371589,71,34,female,No,NA,NA,NA,not at all,very much,images/stimuli/34.jpg,How well can you identify patterns in this painting?,6,9,Fri Jul 12 2019 17:34:17 GMT+0200 (Mitteleuropäische Sommerzeit),1562945657112,11.90795,b2_exp,33
566,,2034,20,,1562946371589,71,52,female,No,NA,NA,NA,not at all,very much,images/stimuli/52.jpg,How well can you identify patterns in this painting?,3,9,Fri Jul 12 2019 17:34:17 GMT+0200 (Mitteleuropäische Sommerzeit),1562945657112,11.90795,b2_exp,34
566,,2085,20,,1562946371589,71,5,female,No,NA,NA,NA,not at all,very much,images/stimuli/5.jpg,How well can you identify patterns in this painting?,2,9,Fri Jul 12 2019 17:34:17 GMT+0200 (Mitteleuropäische Sommerzeit),1562945657112,11.90795,b2_exp,35
566,,1198,20,,1562946371589,71,40,female,No,NA,NA,NA,not at all,very much,images/stimuli/40.jpg,How well can you identify patterns in this painting?,2,9,Fri Jul 12 2019 17:34:17 GMT+0200 (Mitteleuropäische Sommerzeit),1562945657112,11.90795,b2_exp,36
566,,1038,20,,1562946371589,71,43,female,No,NA,NA,NA,not at all,very much,images/stimuli/43.jpg,How well can you identify patterns in this painting?,2,9,Fri Jul 12 2019 17:34:17 GMT+0200 (Mitteleuropäische Sommerzeit),1562945657112,11.90795,b2_exp,37
566,,4132,20,,1562946371589,71,56,female,No,NA,NA,NA,not at all,very much,images/stimuli/56.jpg,How well can you identify patterns in this painting?,5,9,Fri Jul 12 2019 17:34:17 GMT+0200 (Mitteleuropäische Sommerzeit),1562945657112,11.90795,b2_exp,38
566,,2106,20,,1562946371589,71,15,female,No,NA,NA,NA,not at all,very much,images/stimuli/15.jpg,How well can you identify patterns in this painting?,3,9,Fri Jul 12 2019 17:34:17 GMT+0200 (Mitteleuropäische Sommerzeit),1562945657112,11.90795,b2_exp,39
566,,1248,20,,1562946371589,71,25,female,No,NA,NA,NA,not at all,very much,images/stimuli/25.jpg,How well can you identify patterns in this painting?,3,9,Fri Jul 12 2019 17:34:17 GMT+0200 (Mitteleuropäische Sommerzeit),1562945657112,11.90795,b2_exp,40
566,,9048,20,,1562946371589,71,19,female,No,NA,NA,NA,not at all,very much,images/stimuli/19.jpg,How well can you identify patterns in this painting?,4,9,Fri Jul 12 2019 17:34:17 GMT+0200 (Mitteleuropäische Sommerzeit),1562945657112,11.90795,b2_exp,41
566,,4221,20,,1562946371589,71,51,female,No,NA,NA,NA,not at all,very much,images/stimuli/51.jpg,How well can you identify patterns in this painting?,3,9,Fri Jul 12 2019 17:34:17 GMT+0200 (Mitteleuropäische Sommerzeit),1562945657112,11.90795,b2_exp,42
566,,5542,20,,1562946371589,71,29,female,No,NA,NA,NA,not at all,very much,images/stimuli/29.jpg,How well can you identify patterns in this painting?,3,9,Fri Jul 12 2019 17:34:17 GMT+0200 (Mitteleuropäische Sommerzeit),1562945657112,11.90795,b2_exp,43
566,,2280,20,,1562946371589,71,58,female,No,NA,NA,NA,not at all,very much,images/stimuli/58.jpg,How well can you identify patterns in this painting?,2,9,Fri Jul 12 2019 17:34:17 GMT+0200 (Mitteleuropäische Sommerzeit),1562945657112,11.90795,b2_exp,44
566,,4375,20,,1562946371589,71,39,female,No,NA,NA,NA,not at all,very much,images/stimuli/39.jpg,How well can you identify patterns in this painting?,5,9,Fri Jul 12 2019 17:34:17 GMT+0200 (Mitteleuropäische Sommerzeit),1562945657112,11.90795,b2_exp,45
566,,3086,20,,1562946371589,71,26,female,No,NA,NA,NA,not at all,very much,images/stimuli/26.jpg,How well can you identify patterns in this painting?,4,9,Fri Jul 12 2019 17:34:17 GMT+0200 (Mitteleuropäische Sommerzeit),1562945657112,11.90795,b2_exp,46
566,,1300,20,,1562946371589,71,33,female,No,NA,NA,NA,not at all,very much,images/stimuli/33.jpg,How well can you identify patterns in this painting?,4,9,Fri Jul 12 2019 17:34:17 GMT+0200 (Mitteleuropäische Sommerzeit),1562945657112,11.90795,b2_exp,47
566,,4484,20,,1562946371589,71,23,female,No,NA,NA,NA,not at all,very much,images/stimuli/23.jpg,How well can you identify patterns in this painting?,5,9,Fri Jul 12 2019 17:34:17 GMT+0200 (Mitteleuropäische Sommerzeit),1562945657112,11.90795,b2_exp,48
566,,3235,20,,1562946371589,71,49,female,No,NA,NA,NA,not at all,very much,images/stimuli/49.jpg,How well can you identify patterns in this painting?,6,9,Fri Jul 12 2019 17:34:17 GMT+0200 (Mitteleuropäische Sommerzeit),1562945657112,11.90795,b2_exp,49
566,,2964,20,,1562946371589,71,53,female,No,NA,NA,NA,not at all,very much,images/stimuli/53.jpg,How well can you identify patterns in this painting?,3,9,Fri Jul 12 2019 17:34:17 GMT+0200 (Mitteleuropäische Sommerzeit),1562945657112,11.90795,b2_exp,50
566,,5115,20,,1562946371589,71,21,female,No,NA,NA,NA,not at all,very much,images/stimuli/21.jpg,How well can you identify patterns in this painting?,3,9,Fri Jul 12 2019 17:34:17 GMT+0200 (Mitteleuropäische Sommerzeit),1562945657112,11.90795,b2_exp,51
566,,5210,20,,1562946371589,71,46,female,No,NA,NA,NA,not at all,very much,images/stimuli/46.jpg,How well can you identify patterns in this painting?,2,9,Fri Jul 12 2019 17:34:17 GMT+0200 (Mitteleuropäische Sommerzeit),1562945657112,11.90795,b2_exp,52
566,,3054,20,,1562946371589,71,18,female,No,NA,NA,NA,not at all,very much,images/stimuli/18.jpg,How well can you identify patterns in this painting?,3,9,Fri Jul 12 2019 17:34:17 GMT+0200 (Mitteleuropäische Sommerzeit),1562945657112,11.90795,b2_exp,53
566,,4310,20,,1562946371589,71,35,female,No,NA,NA,NA,not at all,very much,images/stimuli/35.jpg,How well can you identify patterns in this painting?,2,9,Fri Jul 12 2019 17:34:17 GMT+0200 (Mitteleuropäische Sommerzeit),1562945657112,11.90795,b2_exp,54
566,,6257,20,,1562946371589,71,9,female,No,NA,NA,NA,not at all,very much,images/stimuli/9.jpg,How well can you identify patterns in this painting?,3,9,Fri Jul 12 2019 17:34:17 GMT+0200 (Mitteleuropäische Sommerzeit),1562945657112,11.90795,b2_exp,55
566,,2509,20,,1562946371589,71,44,female,No,NA,NA,NA,not at all,very much,images/stimuli/44.jpg,How well can you identify patterns in this painting?,2,9,Fri Jul 12 2019 17:34:17 GMT+0200 (Mitteleuropäische Sommerzeit),1562945657112,11.90795,b2_exp,56
566,,4917,20,,1562946371589,71,10,female,No,NA,NA,NA,not at all,very much,images/stimuli/10.jpg,How well can you identify patterns in this painting?,3,9,Fri Jul 12 2019 17:34:17 GMT+0200 (Mitteleuropäische Sommerzeit),1562945657112,11.90795,b2_exp,57
566,,6348,20,,1562946371589,71,45,female,No,NA,NA,NA,not at all,very much,images/stimuli/45.jpg,How well can you identify patterns in this painting?,1,9,Fri Jul 12 2019 17:34:17 GMT+0200 (Mitteleuropäische Sommerzeit),1562945657112,11.90795,b2_exp,58
566,,3486,20,,1562946371589,71,27,female,No,NA,NA,NA,not at all,very much,images/stimuli/27.jpg,How well can you identify patterns in this painting?,3,9,Fri Jul 12 2019 17:34:17 GMT+0200 (Mitteleuropäische Sommerzeit),1562945657112,11.90795,b2_exp,59
566,,6750,20,,1562946371589,71,57,female,No,NA,NA,NA,not at all,very much,images/stimuli/57.jpg,How well can you identify patterns in this painting?,2,9,Fri Jul 12 2019 17:34:17 GMT+0200 (Mitteleuropäische Sommerzeit),1562945657112,11.90795,b2_exp,60
613,,33044,42,,1563023774036,71,NA,male,Yes,0,NA,NA,NA,NA,images/snellen/snellen.png,Which row is the last one where you can recognize <strong>all letters</strong>? Only type in the number of this row (between 1 and 11): ,8,8,Sat Jul 13 2019 15:07:00 GMT+0200 (Central European Summer Time),1563023220332,9.2284,test_snellen,1
613,,4873,42,,1563023774036,71,NA,male,Yes,NA,Yes,No,NA,NA,NA,Do you consider yourself an <strong>expert in cubist art</strong> or were ever engaged in any kind of cubist art education?,Yes,8,Sat Jul 13 2019 15:07:00 GMT+0200 (Central European Summer Time),1563023220332,9.2284,b0_expert,1
613,,16310,42,,1563023774036,71,14,male,Yes,NA,NA,NA,not at all,very much,images/stimuli/14.jpg,How much do you like this painting?,7,8,Sat Jul 13 2019 15:07:00 GMT+0200 (Central European Summer Time),1563023220332,9.2284,b1_exp,1
613,,3436,42,,1563023774036,71,13,male,Yes,NA,NA,NA,not at all,very much,images/stimuli/13.jpg,How much do you like this painting?,7,8,Sat Jul 13 2019 15:07:00 GMT+0200 (Central European Summer Time),1563023220332,9.2284,b1_exp,2
613,,7470,42,,1563023774036,71,30,male,Yes,NA,NA,NA,not at all,very much,images/stimuli/30.jpg,How much do you like this painting?,6,8,Sat Jul 13 2019 15:07:00 GMT+0200 (Central European Summer Time),1563023220332,9.2284,b1_exp,3
613,,3522,42,,1563023774036,71,39,male,Yes,NA,NA,NA,not at all,very much,images/stimuli/39.jpg,How much do you like this painting?,5,8,Sat Jul 13 2019 15:07:00 GMT+0200 (Central European Summer Time),1563023220332,9.2284,b1_exp,4
613,,5105,42,,1563023774036,71,1,male,Yes,NA,NA,NA,not at all,very much,images/stimuli/1.jpg,How much do you like this painting?,7,8,Sat Jul 13 2019 15:07:00 GMT+0200 (Central European Summer Time),1563023220332,9.2284,b1_exp,5
613,,2984,42,,1563023774036,71,37,male,Yes,NA,NA,NA,not at all,very much,images/stimuli/37.jpg,How much do you like this painting?,7,8,Sat Jul 13 2019 15:07:00 GMT+0200 (Central European Summer Time),1563023220332,9.2284,b1_exp,6
613,,3498,42,,1563023774036,71,56,male,Yes,NA,NA,NA,not at all,very much,images/stimuli/56.jpg,How much do you like this painting?,5,8,Sat Jul 13 2019 15:07:00 GMT+0200 (Central European Summer Time),1563023220332,9.2284,b1_exp,7
613,,5635,42,,1563023774036,71,9,male,Yes,NA,NA,NA,not at all,very much,images/stimuli/9.jpg,How much do you like this painting?,4,8,Sat Jul 13 2019 15:07:00 GMT+0200 (Central European Summer Time),1563023220332,9.2284,b1_exp,8
613,,4060,42,,1563023774036,71,2,male,Yes,NA,NA,NA,not at all,very much,images/stimuli/2.jpg,How much do you like this painting?,2,8,Sat Jul 13 2019 15:07:00 GMT+0200 (Central European Summer Time),1563023220332,9.2284,b1_exp,9
613,,4330,42,,1563023774036,71,36,male,Yes,NA,NA,NA,not at all,very much,images/stimuli/36.jpg,How much do you like this painting?,4,8,Sat Jul 13 2019 15:07:00 GMT+0200 (Central European Summer Time),1563023220332,9.2284,b1_exp,10
613,,4149,42,,1563023774036,71,8,male,Yes,NA,NA,NA,not at all,very much,images/stimuli/8.jpg,How much do you like this painting?,7,8,Sat Jul 13 2019 15:07:00 GMT+0200 (Central European Summer Time),1563023220332,9.2284,b1_exp,11
613,,3407,42,,1563023774036,71,15,male,Yes,NA,NA,NA,not at all,very much,images/stimuli/15.jpg,How much do you like this painting?,6,8,Sat Jul 13 2019 15:07:00 GMT+0200 (Central European Summer Time),1563023220332,9.2284,b1_exp,12
613,,2447,42,,1563023774036,71,57,male,Yes,NA,NA,NA,not at all,very much,images/stimuli/57.jpg,How much do you like this painting?,3,8,Sat Jul 13 2019 15:07:00 GMT+0200 (Central European Summer Time),1563023220332,9.2284,b1_exp,13
613,,3139,42,,1563023774036,71,53,male,Yes,NA,NA,NA,not at all,very much,images/stimuli/53.jpg,How much do you like this painting?,6,8,Sat Jul 13 2019 15:07:00 GMT+0200 (Central European Summer Time),1563023220332,9.2284,b1_exp,14
613,,2574,42,,1563023774036,71,5,male,Yes,NA,NA,NA,not at all,very much,images/stimuli/5.jpg,How much do you like this painting?,1,8,Sat Jul 13 2019 15:07:00 GMT+0200 (Central European Summer Time),1563023220332,9.2284,b1_exp,15
613,,3446,42,,1563023774036,71,48,male,Yes,NA,NA,NA,not at all,very much,images/stimuli/48.jpg,How much do you like this painting?,4,8,Sat Jul 13 2019 15:07:00 GMT+0200 (Central European Summer Time),1563023220332,9.2284,b1_exp,16
613,,2383,42,,1563023774036,71,6,male,Yes,NA,NA,NA,not at all,very much,images/stimuli/6.jpg,How much do you like this painting?,7,8,Sat Jul 13 2019 15:07:00 GMT+0200 (Central European Summer Time),1563023220332,9.2284,b1_exp,17
613,,1721,42,,1563023774036,71,29,male,Yes,NA,NA,NA,not at all,very much,images/stimuli/29.jpg,How much do you like this painting?,6,8,Sat Jul 13 2019 15:07:00 GMT+0200 (Central European Summer Time),1563023220332,9.2284,b1_exp,18
613,,2096,42,,1563023774036,71,54,male,Yes,NA,NA,NA,not at all,very much,images/stimuli/54.jpg,How much do you like this painting?,5,8,Sat Jul 13 2019 15:07:00 GMT+0200 (Central European Summer Time),1563023220332,9.2284,b1_exp,19
613,,2285,42,,1563023774036,71,7,male,Yes,NA,NA,NA,not at all,very much,images/stimuli/7.jpg,How much do you like this painting?,6,8,Sat Jul 13 2019 15:07:00 GMT+0200 (Central European Summer Time),1563023220332,9.2284,b1_exp,20
613,,1613,42,,1563023774036,71,3,male,Yes,NA,NA,NA,not at all,very much,images/stimuli/3.jpg,How much do you like this painting?,2,8,Sat Jul 13 2019 15:07:00 GMT+0200 (Central European Summer Time),1563023220332,9.2284,b1_exp,21
613,,2667,42,,1563023774036,71,44,male,Yes,NA,NA,NA,not at all,very much,images/stimuli/44.jpg,How much do you like this painting?,4,8,Sat Jul 13 2019 15:07:00 GMT+0200 (Central European Summer Time),1563023220332,9.2284,b1_exp,22
613,,1828,42,,1563023774036,71,41,male,Yes,NA,NA,NA,not at all,very much,images/stimuli/41.jpg,How much do you like this painting?,4,8,Sat Jul 13 2019 15:07:00 GMT+0200 (Central European Summer Time),1563023220332,9.2284,b1_exp,23
613,,3078,42,,1563023774036,71,59,male,Yes,NA,NA,NA,not at all,very much,images/stimuli/59.jpg,How much do you like this painting?,1,8,Sat Jul 13 2019 15:07:00 GMT+0200 (Central European Summer Time),1563023220332,9.2284,b1_exp,24
613,,1953,42,,1563023774036,71,23,male,Yes,NA,NA,NA,not at all,very much,images/stimuli/23.jpg,How much do you like this painting?,2,8,Sat Jul 13 2019 15:07:00 GMT+0200 (Central European Summer Time),1563023220332,9.2284,b1_exp,25
613,,2588,42,,1563023774036,71,42,male,Yes,NA,NA,NA,not at all,very much,images/stimuli/42.jpg,How much do you like this painting?,5,8,Sat Jul 13 2019 15:07:00 GMT+0200 (Central European Summer Time),1563023220332,9.2284,b1_exp,26
613,,1081,42,,1563023774036,71,50,male,Yes,NA,NA,NA,not at all,very much,images/stimuli/50.jpg,How much do you like this painting?,5,8,Sat Jul 13 2019 15:07:00 GMT+0200 (Central European Summer Time),1563023220332,9.2284,b1_exp,27
613,,1565,42,,1563023774036,71,11,male,Yes,NA,NA,NA,not at all,very much,images/stimuli/11.jpg,How much do you like this painting?,5,8,Sat Jul 13 2019 15:07:00 GMT+0200 (Central European Summer Time),1563023220332,9.2284,b1_exp,28
613,,3237,42,,1563023774036,71,27,male,Yes,NA,NA,NA,not at all,very much,images/stimuli/27.jpg,How much do you like this painting?,4,8,Sat Jul 13 2019 15:07:00 GMT+0200 (Central European Summer Time),1563023220332,9.2284,b1_exp,29
613,,5611,42,,1563023774036,71,34,male,Yes,NA,NA,NA,not at all,very much,images/stimuli/34.jpg,How much do you like this painting?,1,8,Sat Jul 13 2019 15:07:00 GMT+0200 (Central European Summer Time),1563023220332,9.2284,b1_exp,30
613,,2767,42,,1563023774036,71,49,male,Yes,NA,NA,NA,not at all,very much,images/stimuli/49.jpg,How much do you like this painting?,5,8,Sat Jul 13 2019 15:07:00 GMT+0200 (Central European Summer Time),1563023220332,9.2284,b1_exp,31
613,,2740,42,,1563023774036,71,28,male,Yes,NA,NA,NA,not at all,very much,images/stimuli/28.jpg,How much do you like this painting?,7,8,Sat Jul 13 2019 15:07:00 GMT+0200 (Central European Summer Time),1563023220332,9.2284,b1_exp,32
613,,2168,42,,1563023774036,71,18,male,Yes,NA,NA,NA,not at all,very much,images/stimuli/18.jpg,How much do you like this painting?,6,8,Sat Jul 13 2019 15:07:00 GMT+0200 (Central European Summer Time),1563023220332,9.2284,b1_exp,33
613,,2837,42,,1563023774036,71,25,male,Yes,NA,NA,NA,not at all,very much,images/stimuli/25.jpg,How much do you like this painting?,7,8,Sat Jul 13 2019 15:07:00 GMT+0200 (Central European Summer Time),1563023220332,9.2284,b1_exp,34
613,,2213,42,,1563023774036,71,4,male,Yes,NA,NA,NA,not at all,very much,images/stimuli/4.jpg,How much do you like this painting?,4,8,Sat Jul 13 2019 15:07:00 GMT+0200 (Central European Summer Time),1563023220332,9.2284,b1_exp,35
613,,1908,42,,1563023774036,71,10,male,Yes,NA,NA,NA,not at all,very much,images/stimuli/10.jpg,How much do you like this painting?,6,8,Sat Jul 13 2019 15:07:00 GMT+0200 (Central European Summer Time),1563023220332,9.2284,b1_exp,36
613,,1193,42,,1563023774036,71,24,male,Yes,NA,NA,NA,not at all,very much,images/stimuli/24.jpg,How much do you like this painting?,6,8,Sat Jul 13 2019 15:07:00 GMT+0200 (Central European Summer Time),1563023220332,9.2284,b1_exp,37
613,,2603,42,,1563023774036,71,40,male,Yes,NA,NA,NA,not at all,very much,images/stimuli/40.jpg,How much do you like this painting?,7,8,Sat Jul 13 2019 15:07:00 GMT+0200 (Central European Summer Time),1563023220332,9.2284,b1_exp,38
613,,2314,42,,1563023774036,71,38,male,Yes,NA,NA,NA,not at all,very much,images/stimuli/38.jpg,How much do you like this painting?,4,8,Sat Jul 13 2019 15:07:00 GMT+0200 (Central European Summer Time),1563023220332,9.2284,b1_exp,39
613,,3509,42,,1563023774036,71,43,male,Yes,NA,NA,NA,not at all,very much,images/stimuli/43.jpg,How much do you like this painting?,7,8,Sat Jul 13 2019 15:07:00 GMT+0200 (Central European Summer Time),1563023220332,9.2284,b1_exp,40
613,,1906,42,,1563023774036,71,55,male,Yes,NA,NA,NA,not at all,very much,images/stimuli/55.jpg,How much do you like this painting?,3,8,Sat Jul 13 2019 15:07:00 GMT+0200 (Central European Summer Time),1563023220332,9.2284,b1_exp,41
613,,3660,42,,1563023774036,71,20,male,Yes,NA,NA,NA,not at all,very much,images/stimuli/20.jpg,How much do you like this painting?,4,8,Sat Jul 13 2019 15:07:00 GMT+0200 (Central European Summer Time),1563023220332,9.2284,b1_exp,42
613,,3382,42,,1563023774036,71,47,male,Yes,NA,NA,NA,not at all,very much,images/stimuli/47.jpg,How much do you like this painting?,6,8,Sat Jul 13 2019 15:07:00 GMT+0200 (Central European Summer Time),1563023220332,9.2284,b1_exp,43
613,,2643,42,,1563023774036,71,35,male,Yes,NA,NA,NA,not at all,very much,images/stimuli/35.jpg,How much do you like this painting?,7,8,Sat Jul 13 2019 15:07:00 GMT+0200 (Central European Summer Time),1563023220332,9.2284,b1_exp,44
613,,1387,42,,1563023774036,71,22,male,Yes,NA,NA,NA,not at all,very much,images/stimuli/22.jpg,How much do you like this painting?,7,8,Sat Jul 13 2019 15:07:00 GMT+0200 (Central European Summer Time),1563023220332,9.2284,b1_exp,45
613,,1433,42,,1563023774036,71,32,male,Yes,NA,NA,NA,not at all,very much,images/stimuli/32.jpg,How much do you like this painting?,7,8,Sat Jul 13 2019 15:07:00 GMT+0200 (Central European Summer Time),1563023220332,9.2284,b1_exp,46
613,,4565,42,,1563023774036,71,16,male,Yes,NA,NA,NA,not at all,very much,images/stimuli/16.jpg,How much do you like this painting?,5,8,Sat Jul 13 2019 15:07:00 GMT+0200 (Central European Summer Time),1563023220332,9.2284,b1_exp,47
613,,4457,42,,1563023774036,71,33,male,Yes,NA,NA,NA,not at all,very much,images/stimuli/33.jpg,How much do you like this painting?,6,8,Sat Jul 13 2019 15:07:00 GMT+0200 (Central European Summer Time),1563023220332,9.2284,b1_exp,48
613,,1881,42,,1563023774036,71,19,male,Yes,NA,NA,NA,not at all,very much,images/stimuli/19.jpg,How much do you like this painting?,6,8,Sat Jul 13 2019 15:07:00 GMT+0200 (Central European Summer Time),1563023220332,9.2284,b1_exp,49
613,,4308,42,,1563023774036,71,26,male,Yes,NA,NA,NA,not at all,very much,images/stimuli/26.jpg,How much do you like this painting?,4,8,Sat Jul 13 2019 15:07:00 GMT+0200 (Central European Summer Time),1563023220332,9.2284,b1_exp,50
613,,3612,42,,1563023774036,71,17,male,Yes,NA,NA,NA,not at all,very much,images/stimuli/17.jpg,How much do you like this painting?,7,8,Sat Jul 13 2019 15:07:00 GMT+0200 (Central European Summer Time),1563023220332,9.2284,b1_exp,51
613,,1328,42,,1563023774036,71,52,male,Yes,NA,NA,NA,not at all,very much,images/stimuli/52.jpg,How much do you like this painting?,7,8,Sat Jul 13 2019 15:07:00 GMT+0200 (Central European Summer Time),1563023220332,9.2284,b1_exp,52
613,,3190,42,,1563023774036,71,58,male,Yes,NA,NA,NA,not at all,very much,images/stimuli/58.jpg,How much do you like this painting?,7,8,Sat Jul 13 2019 15:07:00 GMT+0200 (Central European Summer Time),1563023220332,9.2284,b1_exp,53
613,,2000,42,,1563023774036,71,60,male,Yes,NA,NA,NA,not at all,very much,images/stimuli/60.jpg,How much do you like this painting?,6,8,Sat Jul 13 2019 15:07:00 GMT+0200 (Central European Summer Time),1563023220332,9.2284,b1_exp,54
613,,2730,42,,1563023774036,71,45,male,Yes,NA,NA,NA,not at all,very much,images/stimuli/45.jpg,How much do you like this painting?,4,8,Sat Jul 13 2019 15:07:00 GMT+0200 (Central European Summer Time),1563023220332,9.2284,b1_exp,55
613,,2583,42,,1563023774036,71,31,male,Yes,NA,NA,NA,not at all,very much,images/stimuli/31.jpg,How much do you like this painting?,3,8,Sat Jul 13 2019 15:07:00 GMT+0200 (Central European Summer Time),1563023220332,9.2284,b1_exp,56
613,,1451,42,,1563023774036,71,21,male,Yes,NA,NA,NA,not at all,very much,images/stimuli/21.jpg,How much do you like this painting?,3,8,Sat Jul 13 2019 15:07:00 GMT+0200 (Central European Summer Time),1563023220332,9.2284,b1_exp,57
613,,2372,42,,1563023774036,71,51,male,Yes,NA,NA,NA,not at all,very much,images/stimuli/51.jpg,How much do you like this painting?,5,8,Sat Jul 13 2019 15:07:00 GMT+0200 (Central European Summer Time),1563023220332,9.2284,b1_exp,58
613,,3201,42,,1563023774036,71,46,male,Yes,NA,NA,NA,not at all,very much,images/stimuli/46.jpg,How much do you like this painting?,7,8,Sat Jul 13 2019 15:07:00 GMT+0200 (Central European Summer Time),1563023220332,9.2284,b1_exp,59
613,,3335,42,,1563023774036,71,12,male,Yes,NA,NA,NA,not at all,very much,images/stimuli/12.jpg,How much do you like this painting?,7,8,Sat Jul 13 2019 15:07:00 GMT+0200 (Central European Summer Time),1563023220332,9.2284,b1_exp,60
613,,12908,42,,1563023774036,71,48,male,Yes,NA,NA,NA,not at all,very much,images/stimuli/48.jpg,How well can you identify patterns in this painting?,3,8,Sat Jul 13 2019 15:07:00 GMT+0200 (Central European Summer Time),1563023220332,9.2284,b2_exp,1
613,,3474,42,,1563023774036,71,16,male,Yes,NA,NA,NA,not at all,very much,images/stimuli/16.jpg,How well can you identify patterns in this painting?,3,8,Sat Jul 13 2019 15:07:00 GMT+0200 (Central European Summer Time),1563023220332,9.2284,b2_exp,2
613,,11023,42,,1563023774036,71,11,male,Yes,NA,NA,NA,not at all,very much,images/stimuli/11.jpg,How well can you identify patterns in this painting?,4,8,Sat Jul 13 2019 15:07:00 GMT+0200 (Central European Summer Time),1563023220332,9.2284,b2_exp,3
613,,4478,42,,1563023774036,71,51,male,Yes,NA,NA,NA,not at all,very much,images/stimuli/51.jpg,How well can you identify patterns in this painting?,6,8,Sat Jul 13 2019 15:07:00 GMT+0200 (Central European Summer Time),1563023220332,9.2284,b2_exp,4
613,,2357,42,,1563023774036,71,33,male,Yes,NA,NA,NA,not at all,very much,images/stimuli/33.jpg,How well can you identify patterns in this painting?,6,8,Sat Jul 13 2019 15:07:00 GMT+0200 (Central European Summer Time),1563023220332,9.2284,b2_exp,5
613,,3543,42,,1563023774036,71,52,male,Yes,NA,NA,NA,not at all,very much,images/stimuli/52.jpg,How well can you identify patterns in this painting?,4,8,Sat Jul 13 2019 15:07:00 GMT+0200 (Central European Summer Time),1563023220332,9.2284,b2_exp,6
613,,2710,42,,1563023774036,71,42,male,Yes,NA,NA,NA,not at all,very much,images/stimuli/42.jpg,How well can you identify patterns in this painting?,4,8,Sat Jul 13 2019 15:07:00 GMT+0200 (Central European Summer Time),1563023220332,9.2284,b2_exp,7
613,,2915,42,,1563023774036,71,50,male,Yes,NA,NA,NA,not at all,very much,images/stimuli/50.jpg,How well can you identify patterns in this painting?,2,8,Sat Jul 13 2019 15:07:00 GMT+0200 (Central European Summer Time),1563023220332,9.2284,b2_exp,8
613,,3902,42,,1563023774036,71,46,male,Yes,NA,NA,NA,not at all,very much,images/stimuli/46.jpg,How well can you identify patterns in this painting?,3,8,Sat Jul 13 2019 15:07:00 GMT+0200 (Central European Summer Time),1563023220332,9.2284,b2_exp,9
613,,2408,42,,1563023774036,71,6,male,Yes,NA,NA,NA,not at all,very much,images/stimuli/6.jpg,How well can you identify patterns in this painting?,7,8,Sat Jul 13 2019 15:07:00 GMT+0200 (Central European Summer Time),1563023220332,9.2284,b2_exp,10
613,,2789,42,,1563023774036,71,38,male,Yes,NA,NA,NA,not at all,very much,images/stimuli/38.jpg,How well can you identify patterns in this painting?,5,8,Sat Jul 13 2019 15:07:00 GMT+0200 (Central European Summer Time),1563023220332,9.2284,b2_exp,11
613,,5233,42,,1563023774036,71,17,male,Yes,NA,NA,NA,not at all,very much,images/stimuli/17.jpg,How well can you identify patterns in this painting?,4,8,Sat Jul 13 2019 15:07:00 GMT+0200 (Central European Summer Time),1563023220332,9.2284,b2_exp,12
613,,2391,42,,1563023774036,71,19,male,Yes,NA,NA,NA,not at all,very much,images/stimuli/19.jpg,How well can you identify patterns in this painting?,5,8,Sat Jul 13 2019 15:07:00 GMT+0200 (Central European Summer Time),1563023220332,9.2284,b2_exp,13
613,,2146,42,,1563023774036,71,34,male,Yes,NA,NA,NA,not at all,very much,images/stimuli/34.jpg,How well can you identify patterns in this painting?,7,8,Sat Jul 13 2019 15:07:00 GMT+0200 (Central European Summer Time),1563023220332,9.2284,b2_exp,14
613,,8130,42,,1563023774036,71,5,male,Yes,NA,NA,NA,not at all,very much,images/stimuli/5.jpg,How well can you identify patterns in this painting?,5,8,Sat Jul 13 2019 15:07:00 GMT+0200 (Central European Summer Time),1563023220332,9.2284,b2_exp,15
613,,7540,42,,1563023774036,71,39,male,Yes,NA,NA,NA,not at all,very much,images/stimuli/39.jpg,How well can you identify patterns in this painting?,4,8,Sat Jul 13 2019 15:07:00 GMT+0200 (Central European Summer Time),1563023220332,9.2284,b2_exp,16
613,,4407,42,,1563023774036,71,55,male,Yes,NA,NA,NA,not at all,very much,images/stimuli/55.jpg,How well can you identify patterns in this painting?,2,8,Sat Jul 13 2019 15:07:00 GMT+0200 (Central European Summer Time),1563023220332,9.2284,b2_exp,17
613,,2845,42,,1563023774036,71,23,male,Yes,NA,NA,NA,not at all,very much,images/stimuli/23.jpg,How well can you identify patterns in this painting?,4,8,Sat Jul 13 2019 15:07:00 GMT+0200 (Central European Summer Time),1563023220332,9.2284,b2_exp,18
613,,4208,42,,1563023774036,71,45,male,Yes,NA,NA,NA,not at all,very much,images/stimuli/45.jpg,How well can you identify patterns in this painting?,3,8,Sat Jul 13 2019 15:07:00 GMT+0200 (Central European Summer Time),1563023220332,9.2284,b2_exp,19
613,,3537,42,,1563023774036,71,9,male,Yes,NA,NA,NA,not at all,very much,images/stimuli/9.jpg,How well can you identify patterns in this painting?,4,8,Sat Jul 13 2019 15:07:00 GMT+0200 (Central European Summer Time),1563023220332,9.2284,b2_exp,20
613,,1911,42,,1563023774036,71,57,male,Yes,NA,NA,NA,not at all,very much,images/stimuli/57.jpg,How well can you identify patterns in this painting?,4,8,Sat Jul 13 2019 15:07:00 GMT+0200 (Central European Summer Time),1563023220332,9.2284,b2_exp,21
613,,3527,42,,1563023774036,71,27,male,Yes,NA,NA,NA,not at all,very much,images/stimuli/27.jpg,How well can you identify patterns in this painting?,7,8,Sat Jul 13 2019 15:07:00 GMT+0200 (Central European Summer Time),1563023220332,9.2284,b2_exp,22
613,,7569,42,,1563023774036,71,41,male,Yes,NA,NA,NA,not at all,very much,images/stimuli/41.jpg,How well can you identify patterns in this painting?,2,8,Sat Jul 13 2019 15:07:00 GMT+0200 (Central European Summer Time),1563023220332,9.2284,b2_exp,23
613,,3172,42,,1563023774036,71,60,male,Yes,NA,NA,NA,not at all,very much,images/stimuli/60.jpg,How well can you identify patterns in this painting?,3,8,Sat Jul 13 2019 15:07:00 GMT+0200 (Central European Summer Time),1563023220332,9.2284,b2_exp,24
613,,2989,42,,1563023774036,71,26,male,Yes,NA,NA,NA,not at all,very much,images/stimuli/26.jpg,How well can you identify patterns in this painting?,7,8,Sat Jul 13 2019 15:07:00 GMT+0200 (Central European Summer Time),1563023220332,9.2284,b2_exp,25
613,,3939,42,,1563023774036,71,36,male,Yes,NA,NA,NA,not at all,very much,images/stimuli/36.jpg,How well can you identify patterns in this painting?,3,8,Sat Jul 13 2019 15:07:00 GMT+0200 (Central European Summer Time),1563023220332,9.2284,b2_exp,26
613,,2372,42,,1563023774036,71,54,male,Yes,NA,NA,NA,not at all,very much,images/stimuli/54.jpg,How well can you identify patterns in this painting?,4,8,Sat Jul 13 2019 15:07:00 GMT+0200 (Central European Summer Time),1563023220332,9.2284,b2_exp,27
613,,2894,42,,1563023774036,71,10,male,Yes,NA,NA,NA,not at all,very much,images/stimuli/10.jpg,How well can you identify patterns in this painting?,7,8,Sat Jul 13 2019 15:07:00 GMT+0200 (Central European Summer Time),1563023220332,9.2284,b2_exp,28
613,,5000,42,,1563023774036,71,53,male,Yes,NA,NA,NA,not at all,very much,images/stimuli/53.jpg,How well can you identify patterns in this painting?,2,8,Sat Jul 13 2019 15:07:00 GMT+0200 (Central European Summer Time),1563023220332,9.2284,b2_exp,29
613,,3286,42,,1563023774036,71,20,male,Yes,NA,NA,NA,not at all,very much,images/stimuli/20.jpg,How well can you identify patterns in this painting?,4,8,Sat Jul 13 2019 15:07:00 GMT+0200 (Central European Summer Time),1563023220332,9.2284,b2_exp,30
613,,1963,42,,1563023774036,71,12,male,Yes,NA,NA,NA,not at all,very much,images/stimuli/12.jpg,How well can you identify patterns in this painting?,7,8,Sat Jul 13 2019 15:07:00 GMT+0200 (Central European Summer Time),1563023220332,9.2284,b2_exp,31
613,,1575,42,,1563023774036,71,8,male,Yes,NA,NA,NA,not at all,very much,images/stimuli/8.jpg,How well can you identify patterns in this painting?,7,8,Sat Jul 13 2019 15:07:00 GMT+0200 (Central European Summer Time),1563023220332,9.2284,b2_exp,32
613,,4778,42,,1563023774036,71,4,male,Yes,NA,NA,NA,not at all,very much,images/stimuli/4.jpg,How well can you identify patterns in this painting?,1,8,Sat Jul 13 2019 15:07:00 GMT+0200 (Central European Summer Time),1563023220332,9.2284,b2_exp,33
613,,5886,42,,1563023774036,71,18,male,Yes,NA,NA,NA,not at all,very much,images/stimuli/18.jpg,How well can you identify patterns in this painting?,6,8,Sat Jul 13 2019 15:07:00 GMT+0200 (Central European Summer Time),1563023220332,9.2284,b2_exp,34
613,,2519,42,,1563023774036,71,44,male,Yes,NA,NA,NA,not at all,very much,images/stimuli/44.jpg,How well can you identify patterns in this painting?,2,8,Sat Jul 13 2019 15:07:00 GMT+0200 (Central European Summer Time),1563023220332,9.2284,b2_exp,35
613,,3971,42,,1563023774036,71,13,male,Yes,NA,NA,NA,not at all,very much,images/stimuli/13.jpg,How well can you identify patterns in this painting?,5,8,Sat Jul 13 2019 15:07:00 GMT+0200 (Central European Summer Time),1563023220332,9.2284,b2_exp,36
613,,2305,42,,1563023774036,71,32,male,Yes,NA,NA,NA,not at all,very much,images/stimuli/32.jpg,How well can you identify patterns in this painting?,7,8,Sat Jul 13 2019 15:07:00 GMT+0200 (Central European Summer Time),1563023220332,9.2284,b2_exp,37
613,,2703,42,,1563023774036,71,31,male,Yes,NA,NA,NA,not at all,very much,images/stimuli/31.jpg,How well can you identify patterns in this painting?,4,8,Sat Jul 13 2019 15:07:00 GMT+0200 (Central European Summer Time),1563023220332,9.2284,b2_exp,38
613,,2657,42,,1563023774036,71,25,male,Yes,NA,NA,NA,not at all,very much,images/stimuli/25.jpg,How well can you identify patterns in this painting?,6,8,Sat Jul 13 2019 15:07:00 GMT+0200 (Central European Summer Time),1563023220332,9.2284,b2_exp,39
613,,5528,42,,1563023774036,71,1,male,Yes,NA,NA,NA,not at all,very much,images/stimuli/1.jpg,How well can you identify patterns in this painting?,7,8,Sat Jul 13 2019 15:07:00 GMT+0200 (Central European Summer Time),1563023220332,9.2284,b2_exp,40
613,,4091,42,,1563023774036,71,28,male,Yes,NA,NA,NA,not at all,very much,images/stimuli/28.jpg,How well can you identify patterns in this painting?,5,8,Sat Jul 13 2019 15:07:00 GMT+0200 (Central European Summer Time),1563023220332,9.2284,b2_exp,41
613,,4110,42,,1563023774036,71,7,male,Yes,NA,NA,NA,not at all,very much,images/stimuli/7.jpg,How well can you identify patterns in this painting?,4,8,Sat Jul 13 2019 15:07:00 GMT+0200 (Central European Summer Time),1563023220332,9.2284,b2_exp,42
613,,2543,42,,1563023774036,71,43,male,Yes,NA,NA,NA,not at all,very much,images/stimuli/43.jpg,How well can you identify patterns in this painting?,3,8,Sat Jul 13 2019 15:07:00 GMT+0200 (Central European Summer Time),1563023220332,9.2284,b2_exp,43
613,,2688,42,,1563023774036,71,49,male,Yes,NA,NA,NA,not at all,very much,images/stimuli/49.jpg,How well can you identify patterns in this painting?,6,8,Sat Jul 13 2019 15:07:00 GMT+0200 (Central European Summer Time),1563023220332,9.2284,b2_exp,44
613,,2820,42,,1563023774036,71,58,male,Yes,NA,NA,NA,not at all,very much,images/stimuli/58.jpg,How well can you identify patterns in this painting?,3,8,Sat Jul 13 2019 15:07:00 GMT+0200 (Central European Summer Time),1563023220332,9.2284,b2_exp,45
613,,2110,42,,1563023774036,71,2,male,Yes,NA,NA,NA,not at all,very much,images/stimuli/2.jpg,How well can you identify patterns in this painting?,5,8,Sat Jul 13 2019 15:07:00 GMT+0200 (Central European Summer Time),1563023220332,9.2284,b2_exp,46
613,,2937,42,,1563023774036,71,37,male,Yes,NA,NA,NA,not at all,very much,images/stimuli/37.jpg,How well can you identify patterns in this painting?,6,8,Sat Jul 13 2019 15:07:00 GMT+0200 (Central European Summer Time),1563023220332,9.2284,b2_exp,47
613,,3260,42,,1563023774036,71,35,male,Yes,NA,NA,NA,not at all,very much,images/stimuli/35.jpg,How well can you identify patterns in this painting?,3,8,Sat Jul 13 2019 15:07:00 GMT+0200 (Central European Summer Time),1563023220332,9.2284,b2_exp,48
613,,2783,42,,1563023774036,71,3,male,Yes,NA,NA,NA,not at all,very much,images/stimuli/3.jpg,How well can you identify patterns in this painting?,2,8,Sat Jul 13 2019 15:07:00 GMT+0200 (Central European Summer Time),1563023220332,9.2284,b2_exp,49
613,,1797,42,,1563023774036,71,56,male,Yes,NA,NA,NA,not at all,very much,images/stimuli/56.jpg,How well can you identify patterns in this painting?,4,8,Sat Jul 13 2019 15:07:00 GMT+0200 (Central European Summer Time),1563023220332,9.2284,b2_exp,50
613,,1399,42,,1563023774036,71,24,male,Yes,NA,NA,NA,not at all,very much,images/stimuli/24.jpg,How well can you identify patterns in this painting?,4,8,Sat Jul 13 2019 15:07:00 GMT+0200 (Central European Summer Time),1563023220332,9.2284,b2_exp,51
613,,6051,42,,1563023774036,71,15,male,Yes,NA,NA,NA,not at all,very much,images/stimuli/15.jpg,How well can you identify patterns in this painting?,5,8,Sat Jul 13 2019 15:07:00 GMT+0200 (Central European Summer Time),1563023220332,9.2284,b2_exp,52
613,,1506,42,,1563023774036,71,29,male,Yes,NA,NA,NA,not at all,very much,images/stimuli/29.jpg,How well can you identify patterns in this painting?,5,8,Sat Jul 13 2019 15:07:00 GMT+0200 (Central European Summer Time),1563023220332,9.2284,b2_exp,53
613,,3792,42,,1563023774036,71,59,male,Yes,NA,NA,NA,not at all,very much,images/stimuli/59.jpg,How well can you identify patterns in this painting?,2,8,Sat Jul 13 2019 15:07:00 GMT+0200 (Central European Summer Time),1563023220332,9.2284,b2_exp,54
613,,1926,42,,1563023774036,71,22,male,Yes,NA,NA,NA,not at all,very much,images/stimuli/22.jpg,How well can you identify patterns in this painting?,7,8,Sat Jul 13 2019 15:07:00 GMT+0200 (Central European Summer Time),1563023220332,9.2284,b2_exp,55
613,,2658,42,,1563023774036,71,14,male,Yes,NA,NA,NA,not at all,very much,images/stimuli/14.jpg,How well can you identify patterns in this painting?,5,8,Sat Jul 13 2019 15:07:00 GMT+0200 (Central European Summer Time),1563023220332,9.2284,b2_exp,56
613,,2380,42,,1563023774036,71,21,male,Yes,NA,NA,NA,not at all,very much,images/stimuli/21.jpg,How well can you identify patterns in this painting?,2,8,Sat Jul 13 2019 15:07:00 GMT+0200 (Central European Summer Time),1563023220332,9.2284,b2_exp,57
613,,3041,42,,1563023774036,71,40,male,Yes,NA,NA,NA,not at all,very much,images/stimuli/40.jpg,How well can you identify patterns in this painting?,5,8,Sat Jul 13 2019 15:07:00 GMT+0200 (Central European Summer Time),1563023220332,9.2284,b2_exp,58
613,,2214,42,,1563023774036,71,47,male,Yes,NA,NA,NA,not at all,very much,images/stimuli/47.jpg,How well can you identify patterns in this painting?,6,8,Sat Jul 13 2019 15:07:00 GMT+0200 (Central European Summer Time),1563023220332,9.2284,b2_exp,59
613,,1751,42,,1563023774036,71,30,male,Yes,NA,NA,NA,not at all,very much,images/stimuli/30.jpg,How well can you identify patterns in this painting?,5,8,Sat Jul 13 2019 15:07:00 GMT+0200 (Central European Summer Time),1563023220332,9.2284,b2_exp,60
547,,17994,20,,1562933585035,71,NA,female,Yes,0,NA,NA,NA,NA,images/snellen/snellen.png,Which row is the last one where you can recognize <strong>all letters</strong>? Only type in the number of this row (between 1 and 11): ,10,10,Fri Jul 12 2019 13:33:25 GMT+0200 (Mitteleuropäische Sommerzeit),1562931205802,39.65388333333333,test_snellen,1
547,,33822,20,,1562933585035,71,NA,female,Yes,NA,Yes,No,NA,NA,NA,Do you consider yourself an <strong>expert in cubist art</strong> or were ever engaged in any kind of cubist art education?,Yes,10,Fri Jul 12 2019 13:33:25 GMT+0200 (Mitteleuropäische Sommerzeit),1562931205802,39.65388333333333,b0_expert,1
547,,14132,20,,1562933585035,71,26,female,Yes,NA,NA,NA,not at all,very much,images/stimuli/26.jpg,How much do you like this painting?,4,10,Fri Jul 12 2019 13:33:25 GMT+0200 (Mitteleuropäische Sommerzeit),1562931205802,39.65388333333333,b1_exp,1
547,,6883,20,,1562933585035,71,1,female,Yes,NA,NA,NA,not at all,very much,images/stimuli/1.jpg,How much do you like this painting?,1,10,Fri Jul 12 2019 13:33:25 GMT+0200 (Mitteleuropäische Sommerzeit),1562931205802,39.65388333333333,b1_exp,2
547,,5151,20,,1562933585035,71,40,female,Yes,NA,NA,NA,not at all,very much,images/stimuli/40.jpg,How much do you like this painting?,5,10,Fri Jul 12 2019 13:33:25 GMT+0200 (Mitteleuropäische Sommerzeit),1562931205802,39.65388333333333,b1_exp,3
547,,4244,20,,1562933585035,71,47,female,Yes,NA,NA,NA,not at all,very much,images/stimuli/47.jpg,How much do you like this painting?,6,10,Fri Jul 12 2019 13:33:25 GMT+0200 (Mitteleuropäische Sommerzeit),1562931205802,39.65388333333333,b1_exp,4
547,,2772,20,,1562933585035,71,21,female,Yes,NA,NA,NA,not at all,very much,images/stimuli/21.jpg,How much do you like this painting?,6,10,Fri Jul 12 2019 13:33:25 GMT+0200 (Mitteleuropäische Sommerzeit),1562931205802,39.65388333333333,b1_exp,5
547,,3851,20,,1562933585035,71,54,female,Yes,NA,NA,NA,not at all,very much,images/stimuli/54.jpg,How much do you like this painting?,4,10,Fri Jul 12 2019 13:33:25 GMT+0200 (Mitteleuropäische Sommerzeit),1562931205802,39.65388333333333,b1_exp,6
547,,4417,20,,1562933585035,71,18,female,Yes,NA,NA,NA,not at all,very much,images/stimuli/18.jpg,How much do you like this painting?,2,10,Fri Jul 12 2019 13:33:25 GMT+0200 (Mitteleuropäische Sommerzeit),1562931205802,39.65388333333333,b1_exp,7
547,,2296,20,,1562933585035,71,6,female,Yes,NA,NA,NA,not at all,very much,images/stimuli/6.jpg,How much do you like this painting?,3,10,Fri Jul 12 2019 13:33:25 GMT+0200 (Mitteleuropäische Sommerzeit),1562931205802,39.65388333333333,b1_exp,8
547,,2274,20,,1562933585035,71,38,female,Yes,NA,NA,NA,not at all,very much,images/stimuli/38.jpg,How much do you like this painting?,6,10,Fri Jul 12 2019 13:33:25 GMT+0200 (Mitteleuropäische Sommerzeit),1562931205802,39.65388333333333,b1_exp,9
547,,2005,20,,1562933585035,71,56,female,Yes,NA,NA,NA,not at all,very much,images/stimuli/56.jpg,How much do you like this painting?,5,10,Fri Jul 12 2019 13:33:25 GMT+0200 (Mitteleuropäische Sommerzeit),1562931205802,39.65388333333333,b1_exp,10
547,,2128,20,,1562933585035,71,17,female,Yes,NA,NA,NA,not at all,very much,images/stimuli/17.jpg,How much do you like this painting?,4,10,Fri Jul 12 2019 13:33:25 GMT+0200 (Mitteleuropäische Sommerzeit),1562931205802,39.65388333333333,b1_exp,11
547,,3002,20,,1562933585035,71,50,female,Yes,NA,NA,NA,not at all,very much,images/stimuli/50.jpg,How much do you like this painting?,6,10,Fri Jul 12 2019 13:33:25 GMT+0200 (Mitteleuropäische Sommerzeit),1562931205802,39.65388333333333,b1_exp,12
547,,7862,20,,1562933585035,71,45,female,Yes,NA,NA,NA,not at all,very much,images/stimuli/45.jpg,How much do you like this painting?,4,10,Fri Jul 12 2019 13:33:25 GMT+0200 (Mitteleuropäische Sommerzeit),1562931205802,39.65388333333333,b1_exp,13
547,,2847,20,,1562933585035,71,33,female,Yes,NA,NA,NA,not at all,very much,images/stimuli/33.jpg,How much do you like this painting?,7,10,Fri Jul 12 2019 13:33:25 GMT+0200 (Mitteleuropäische Sommerzeit),1562931205802,39.65388333333333,b1_exp,14
547,,1968,20,,1562933585035,71,43,female,Yes,NA,NA,NA,not at all,very much,images/stimuli/43.jpg,How much do you like this painting?,4,10,Fri Jul 12 2019 13:33:25 GMT+0200 (Mitteleuropäische Sommerzeit),1562931205802,39.65388333333333,b1_exp,15
547,,1798,20,,1562933585035,71,12,female,Yes,NA,NA,NA,not at all,very much,images/stimuli/12.jpg,How much do you like this painting?,5,10,Fri Jul 12 2019 13:33:25 GMT+0200 (Mitteleuropäische Sommerzeit),1562931205802,39.65388333333333,b1_exp,16
547,,2205,20,,1562933585035,71,42,female,Yes,NA,NA,NA,not at all,very much,images/stimuli/42.jpg,How much do you like this painting?,3,10,Fri Jul 12 2019 13:33:25 GMT+0200 (Mitteleuropäische Sommerzeit),1562931205802,39.65388333333333,b1_exp,17
547,,2521,20,,1562933585035,71,46,female,Yes,NA,NA,NA,not at all,very much,images/stimuli/46.jpg,How much do you like this painting?,6,10,Fri Jul 12 2019 13:33:25 GMT+0200 (Mitteleuropäische Sommerzeit),1562931205802,39.65388333333333,b1_exp,18
547,,4072,20,,1562933585035,71,25,female,Yes,NA,NA,NA,not at all,very much,images/stimuli/25.jpg,How much do you like this painting?,7,10,Fri Jul 12 2019 13:33:25 GMT+0200 (Mitteleuropäische Sommerzeit),1562931205802,39.65388333333333,b1_exp,19
547,,2983,20,,1562933585035,71,39,female,Yes,NA,NA,NA,not at all,very much,images/stimuli/39.jpg,How much do you like this painting?,4,10,Fri Jul 12 2019 13:33:25 GMT+0200 (Mitteleuropäische Sommerzeit),1562931205802,39.65388333333333,b1_exp,20
547,,9625,20,,1562933585035,71,34,female,Yes,NA,NA,NA,not at all,very much,images/stimuli/34.jpg,How much do you like this painting?,6,10,Fri Jul 12 2019 13:33:25 GMT+0200 (Mitteleuropäische Sommerzeit),1562931205802,39.65388333333333,b1_exp,21
547,,2922,20,,1562933585035,71,16,female,Yes,NA,NA,NA,not at all,very much,images/stimuli/16.jpg,How much do you like this painting?,3,10,Fri Jul 12 2019 13:33:25 GMT+0200 (Mitteleuropäische Sommerzeit),1562931205802,39.65388333333333,b1_exp,22
547,,2641,20,,1562933585035,71,19,female,Yes,NA,NA,NA,not at all,very much,images/stimuli/19.jpg,How much do you like this painting?,6,10,Fri Jul 12 2019 13:33:25 GMT+0200 (Mitteleuropäische Sommerzeit),1562931205802,39.65388333333333,b1_exp,23
547,,5909,20,,1562933585035,71,49,female,Yes,NA,NA,NA,not at all,very much,images/stimuli/49.jpg,How much do you like this painting?,4,10,Fri Jul 12 2019 13:33:25 GMT+0200 (Mitteleuropäische Sommerzeit),1562931205802,39.65388333333333,b1_exp,24
547,,2296,20,,1562933585035,71,15,female,Yes,NA,NA,NA,not at all,very much,images/stimuli/15.jpg,How much do you like this painting?,2,10,Fri Jul 12 2019 13:33:25 GMT+0200 (Mitteleuropäische Sommerzeit),1562931205802,39.65388333333333,b1_exp,25
547,,4806,20,,1562933585035,71,48,female,Yes,NA,NA,NA,not at all,very much,images/stimuli/48.jpg,How much do you like this painting?,2,10,Fri Jul 12 2019 13:33:25 GMT+0200 (Mitteleuropäische Sommerzeit),1562931205802,39.65388333333333,b1_exp,26
547,,4694,20,,1562933585035,71,41,female,Yes,NA,NA,NA,not at all,very much,images/stimuli/41.jpg,How much do you like this painting?,1,10,Fri Jul 12 2019 13:33:25 GMT+0200 (Mitteleuropäische Sommerzeit),1562931205802,39.65388333333333,b1_exp,27
547,,4394,20,,1562933585035,71,8,female,Yes,NA,NA,NA,not at all,very much,images/stimuli/8.jpg,How much do you like this painting?,1,10,Fri Jul 12 2019 13:33:25 GMT+0200 (Mitteleuropäische Sommerzeit),1562931205802,39.65388333333333,b1_exp,28
547,,4309,20,,1562933585035,71,51,female,Yes,NA,NA,NA,not at all,very much,images/stimuli/51.jpg,How much do you like this painting?,6,10,Fri Jul 12 2019 13:33:25 GMT+0200 (Mitteleuropäische Sommerzeit),1562931205802,39.65388333333333,b1_exp,29
547,,2320,20,,1562933585035,71,22,female,Yes,NA,NA,NA,not at all,very much,images/stimuli/22.jpg,How much do you like this painting?,4,10,Fri Jul 12 2019 13:33:25 GMT+0200 (Mitteleuropäische Sommerzeit),1562931205802,39.65388333333333,b1_exp,30
547,,2042,20,,1562933585035,71,37,female,Yes,NA,NA,NA,not at all,very much,images/stimuli/37.jpg,How much do you like this painting?,4,10,Fri Jul 12 2019 13:33:25 GMT+0200 (Mitteleuropäische Sommerzeit),1562931205802,39.65388333333333,b1_exp,31
547,,2517,20,,1562933585035,71,7,female,Yes,NA,NA,NA,not at all,very much,images/stimuli/7.jpg,How much do you like this painting?,2,10,Fri Jul 12 2019 13:33:25 GMT+0200 (Mitteleuropäische Sommerzeit),1562931205802,39.65388333333333,b1_exp,32
547,,8980,20,,1562933585035,71,52,female,Yes,NA,NA,NA,not at all,very much,images/stimuli/52.jpg,How much do you like this painting?,1,10,Fri Jul 12 2019 13:33:25 GMT+0200 (Mitteleuropäische Sommerzeit),1562931205802,39.65388333333333,b1_exp,33
547,,3377,20,,1562933585035,71,32,female,Yes,NA,NA,NA,not at all,very much,images/stimuli/32.jpg,How much do you like this painting?,6,10,Fri Jul 12 2019 13:33:25 GMT+0200 (Mitteleuropäische Sommerzeit),1562931205802,39.65388333333333,b1_exp,34
547,,13423,20,,1562933585035,71,59,female,Yes,NA,NA,NA,not at all,very much,images/stimuli/59.jpg,How much do you like this painting?,4,10,Fri Jul 12 2019 13:33:25 GMT+0200 (Mitteleuropäische Sommerzeit),1562931205802,39.65388333333333,b1_exp,35
547,,2045,20,,1562933585035,71,5,female,Yes,NA,NA,NA,not at all,very much,images/stimuli/5.jpg,How much do you like this painting?,3,10,Fri Jul 12 2019 13:33:25 GMT+0200 (Mitteleuropäische Sommerzeit),1562931205802,39.65388333333333,b1_exp,36
547,,2050,20,,1562933585035,71,13,female,Yes,NA,NA,NA,not at all,very much,images/stimuli/13.jpg,How much do you like this painting?,1,10,Fri Jul 12 2019 13:33:25 GMT+0200 (Mitteleuropäische Sommerzeit),1562931205802,39.65388333333333,b1_exp,37
547,,1852,20,,1562933585035,71,2,female,Yes,NA,NA,NA,not at all,very much,images/stimuli/2.jpg,How much do you like this painting?,3,10,Fri Jul 12 2019 13:33:25 GMT+0200 (Mitteleuropäische Sommerzeit),1562931205802,39.65388333333333,b1_exp,38
547,,1929,20,,1562933585035,71,23,female,Yes,NA,NA,NA,not at all,very much,images/stimuli/23.jpg,How much do you like this painting?,6,10,Fri Jul 12 2019 13:33:25 GMT+0200 (Mitteleuropäische Sommerzeit),1562931205802,39.65388333333333,b1_exp,39
547,,1492,20,,1562933585035,71,27,female,Yes,NA,NA,NA,not at all,very much,images/stimuli/27.jpg,How much do you like this painting?,6,10,Fri Jul 12 2019 13:33:25 GMT+0200 (Mitteleuropäische Sommerzeit),1562931205802,39.65388333333333,b1_exp,40
547,,1964,20,,1562933585035,71,55,female,Yes,NA,NA,NA,not at all,very much,images/stimuli/55.jpg,How much do you like this painting?,3,10,Fri Jul 12 2019 13:33:25 GMT+0200 (Mitteleuropäische Sommerzeit),1562931205802,39.65388333333333,b1_exp,41
547,,1961,20,,1562933585035,71,35,female,Yes,NA,NA,NA,not at all,very much,images/stimuli/35.jpg,How much do you like this painting?,5,10,Fri Jul 12 2019 13:33:25 GMT+0200 (Mitteleuropäische Sommerzeit),1562931205802,39.65388333333333,b1_exp,42
547,,2054,20,,1562933585035,71,57,female,Yes,NA,NA,NA,not at all,very much,images/stimuli/57.jpg,How much do you like this painting?,1,10,Fri Jul 12 2019 13:33:25 GMT+0200 (Mitteleuropäische Sommerzeit),1562931205802,39.65388333333333,b1_exp,43
547,,2188,20,,1562933585035,71,20,female,Yes,NA,NA,NA,not at all,very much,images/stimuli/20.jpg,How much do you like this painting?,6,10,Fri Jul 12 2019 13:33:25 GMT+0200 (Mitteleuropäische Sommerzeit),1562931205802,39.65388333333333,b1_exp,44
547,,1390,20,,1562933585035,71,36,female,Yes,NA,NA,NA,not at all,very much,images/stimuli/36.jpg,How much do you like this painting?,6,10,Fri Jul 12 2019 13:33:25 GMT+0200 (Mitteleuropäische Sommerzeit),1562931205802,39.65388333333333,b1_exp,45
547,,3154,20,,1562933585035,71,3,female,Yes,NA,NA,NA,not at all,very much,images/stimuli/3.jpg,How much do you like this painting?,4,10,Fri Jul 12 2019 13:33:25 GMT+0200 (Mitteleuropäische Sommerzeit),1562931205802,39.65388333333333,b1_exp,46
547,,5477,20,,1562933585035,71,44,female,Yes,NA,NA,NA,not at all,very much,images/stimuli/44.jpg,How much do you like this painting?,1,10,Fri Jul 12 2019 13:33:25 GMT+0200 (Mitteleuropäische Sommerzeit),1562931205802,39.65388333333333,b1_exp,47
547,,1808,20,,1562933585035,71,31,female,Yes,NA,NA,NA,not at all,very much,images/stimuli/31.jpg,How much do you like this painting?,5,10,Fri Jul 12 2019 13:33:25 GMT+0200 (Mitteleuropäische Sommerzeit),1562931205802,39.65388333333333,b1_exp,48
547,,1970,20,,1562933585035,71,53,female,Yes,NA,NA,NA,not at all,very much,images/stimuli/53.jpg,How much do you like this painting?,2,10,Fri Jul 12 2019 13:33:25 GMT+0200 (Mitteleuropäische Sommerzeit),1562931205802,39.65388333333333,b1_exp,49
547,,2175,20,,1562933585035,71,11,female,Yes,NA,NA,NA,not at all,very much,images/stimuli/11.jpg,How much do you like this painting?,2,10,Fri Jul 12 2019 13:33:25 GMT+0200 (Mitteleuropäische Sommerzeit),1562931205802,39.65388333333333,b1_exp,50
547,,2283,20,,1562933585035,71,58,female,Yes,NA,NA,NA,not at all,very much,images/stimuli/58.jpg,How much do you like this painting?,1,10,Fri Jul 12 2019 13:33:25 GMT+0200 (Mitteleuropäische Sommerzeit),1562931205802,39.65388333333333,b1_exp,51
547,,2027,20,,1562933585035,71,30,female,Yes,NA,NA,NA,not at all,very much,images/stimuli/30.jpg,How much do you like this painting?,7,10,Fri Jul 12 2019 13:33:25 GMT+0200 (Mitteleuropäische Sommerzeit),1562931205802,39.65388333333333,b1_exp,52
547,,1373,20,,1562933585035,71,29,female,Yes,NA,NA,NA,not at all,very much,images/stimuli/29.jpg,How much do you like this painting?,7,10,Fri Jul 12 2019 13:33:25 GMT+0200 (Mitteleuropäische Sommerzeit),1562931205802,39.65388333333333,b1_exp,53
547,,1971,20,,1562933585035,71,4,female,Yes,NA,NA,NA,not at all,very much,images/stimuli/4.jpg,How much do you like this painting?,2,10,Fri Jul 12 2019 13:33:25 GMT+0200 (Mitteleuropäische Sommerzeit),1562931205802,39.65388333333333,b1_exp,54
547,,1970,20,,1562933585035,71,28,female,Yes,NA,NA,NA,not at all,very much,images/stimuli/28.jpg,How much do you like this painting?,6,10,Fri Jul 12 2019 13:33:25 GMT+0200 (Mitteleuropäische Sommerzeit),1562931205802,39.65388333333333,b1_exp,55
547,,2825,20,,1562933585035,71,14,female,Yes,NA,NA,NA,not at all,very much,images/stimuli/14.jpg,How much do you like this painting?,1,10,Fri Jul 12 2019 13:33:25 GMT+0200 (Mitteleuropäische Sommerzeit),1562931205802,39.65388333333333,b1_exp,56
547,,4378,20,,1562933585035,71,10,female,Yes,NA,NA,NA,not at all,very much,images/stimuli/10.jpg,How much do you like this painting?,2,10,Fri Jul 12 2019 13:33:25 GMT+0200 (Mitteleuropäische Sommerzeit),1562931205802,39.65388333333333,b1_exp,57
547,,2664,20,,1562933585035,71,9,female,Yes,NA,NA,NA,not at all,very much,images/stimuli/9.jpg,How much do you like this painting?,1,10,Fri Jul 12 2019 13:33:25 GMT+0200 (Mitteleuropäische Sommerzeit),1562931205802,39.65388333333333,b1_exp,58
547,,4457,20,,1562933585035,71,24,female,Yes,NA,NA,NA,not at all,very much,images/stimuli/24.jpg,How much do you like this painting?,6,10,Fri Jul 12 2019 13:33:25 GMT+0200 (Mitteleuropäische Sommerzeit),1562931205802,39.65388333333333,b1_exp,59
547,,1927,20,,1562933585035,71,60,female,Yes,NA,NA,NA,not at all,very much,images/stimuli/60.jpg,How much do you like this painting?,2,10,Fri Jul 12 2019 13:33:25 GMT+0200 (Mitteleuropäische Sommerzeit),1562931205802,39.65388333333333,b1_exp,60
547,,11491,20,,1562933585035,71,34,female,Yes,NA,NA,NA,not at all,very much,images/stimuli/34.jpg,How well can you identify patterns in this painting?,4,10,Fri Jul 12 2019 13:33:25 GMT+0200 (Mitteleuropäische Sommerzeit),1562931205802,39.65388333333333,b2_exp,1
547,,4883,20,,1562933585035,71,5,female,Yes,NA,NA,NA,not at all,very much,images/stimuli/5.jpg,How well can you identify patterns in this painting?,2,10,Fri Jul 12 2019 13:33:25 GMT+0200 (Mitteleuropäische Sommerzeit),1562931205802,39.65388333333333,b2_exp,2
547,,5899,20,,1562933585035,71,50,female,Yes,NA,NA,NA,not at all,very much,images/stimuli/50.jpg,How well can you identify patterns in this painting?,1,10,Fri Jul 12 2019 13:33:25 GMT+0200 (Mitteleuropäische Sommerzeit),1562931205802,39.65388333333333,b2_exp,3
547,,1708,20,,1562933585035,71,11,female,Yes,NA,NA,NA,not at all,very much,images/stimuli/11.jpg,How well can you identify patterns in this painting?,1,10,Fri Jul 12 2019 13:33:25 GMT+0200 (Mitteleuropäische Sommerzeit),1562931205802,39.65388333333333,b2_exp,4
547,,3068,20,,1562933585035,71,33,female,Yes,NA,NA,NA,not at all,very much,images/stimuli/33.jpg,How well can you identify patterns in this painting?,6,10,Fri Jul 12 2019 13:33:25 GMT+0200 (Mitteleuropäische Sommerzeit),1562931205802,39.65388333333333,b2_exp,5
547,,5543,20,,1562933585035,71,35,female,Yes,NA,NA,NA,not at all,very much,images/stimuli/35.jpg,How well can you identify patterns in this painting?,6,10,Fri Jul 12 2019 13:33:25 GMT+0200 (Mitteleuropäische Sommerzeit),1562931205802,39.65388333333333,b2_exp,6
547,,4211,20,,1562933585035,71,52,female,Yes,NA,NA,NA,not at all,very much,images/stimuli/52.jpg,How well can you identify patterns in this painting?,1,10,Fri Jul 12 2019 13:33:25 GMT+0200 (Mitteleuropäische Sommerzeit),1562931205802,39.65388333333333,b2_exp,7
547,,3222,20,,1562933585035,71,6,female,Yes,NA,NA,NA,not at all,very much,images/stimuli/6.jpg,How well can you identify patterns in this painting?,1,10,Fri Jul 12 2019 13:33:25 GMT+0200 (Mitteleuropäische Sommerzeit),1562931205802,39.65388333333333,b2_exp,8
547,,8253,20,,1562933585035,71,37,female,Yes,NA,NA,NA,not at all,very much,images/stimuli/37.jpg,How well can you identify patterns in this painting?,5,10,Fri Jul 12 2019 13:33:25 GMT+0200 (Mitteleuropäische Sommerzeit),1562931205802,39.65388333333333,b2_exp,9
547,,19689,20,,1562933585035,71,46,female,Yes,NA,NA,NA,not at all,very much,images/stimuli/46.jpg,How well can you identify patterns in this painting?,2,10,Fri Jul 12 2019 13:33:25 GMT+0200 (Mitteleuropäische Sommerzeit),1562931205802,39.65388333333333,b2_exp,10
547,,1930,20,,1562933585035,71,58,female,Yes,NA,NA,NA,not at all,very much,images/stimuli/58.jpg,How well can you identify patterns in this painting?,1,10,Fri Jul 12 2019 13:33:25 GMT+0200 (Mitteleuropäische Sommerzeit),1562931205802,39.65388333333333,b2_exp,11
547,,2782,20,,1562933585035,71,27,female,Yes,NA,NA,NA,not at all,very much,images/stimuli/27.jpg,How well can you identify patterns in this painting?,6,10,Fri Jul 12 2019 13:33:25 GMT+0200 (Mitteleuropäische Sommerzeit),1562931205802,39.65388333333333,b2_exp,12
547,,3654,20,,1562933585035,71,49,female,Yes,NA,NA,NA,not at all,very much,images/stimuli/49.jpg,How well can you identify patterns in this painting?,1,10,Fri Jul 12 2019 13:33:25 GMT+0200 (Mitteleuropäische Sommerzeit),1562931205802,39.65388333333333,b2_exp,13
547,,3110,20,,1562933585035,71,48,female,Yes,NA,NA,NA,not at all,very much,images/stimuli/48.jpg,How well can you identify patterns in this painting?,1,10,Fri Jul 12 2019 13:33:25 GMT+0200 (Mitteleuropäische Sommerzeit),1562931205802,39.65388333333333,b2_exp,14
547,,5234,20,,1562933585035,71,53,female,Yes,NA,NA,NA,not at all,very much,images/stimuli/53.jpg,How well can you identify patterns in this painting?,1,10,Fri Jul 12 2019 13:33:25 GMT+0200 (Mitteleuropäische Sommerzeit),1562931205802,39.65388333333333,b2_exp,15
547,,2530,20,,1562933585035,71,60,female,Yes,NA,NA,NA,not at all,very much,images/stimuli/60.jpg,How well can you identify patterns in this painting?,3,10,Fri Jul 12 2019 13:33:25 GMT+0200 (Mitteleuropäische Sommerzeit),1562931205802,39.65388333333333,b2_exp,16
547,,4049,20,,1562933585035,71,2,female,Yes,NA,NA,NA,not at all,very much,images/stimuli/2.jpg,How well can you identify patterns in this painting?,2,10,Fri Jul 12 2019 13:33:25 GMT+0200 (Mitteleuropäische Sommerzeit),1562931205802,39.65388333333333,b2_exp,17
547,,7360,20,,1562933585035,71,32,female,Yes,NA,NA,NA,not at all,very much,images/stimuli/32.jpg,How well can you identify patterns in this painting?,7,10,Fri Jul 12 2019 13:33:25 GMT+0200 (Mitteleuropäische Sommerzeit),1562931205802,39.65388333333333,b2_exp,18
547,,9242,20,,1562933585035,71,26,female,Yes,NA,NA,NA,not at all,very much,images/stimuli/26.jpg,How well can you identify patterns in this painting?,5,10,Fri Jul 12 2019 13:33:25 GMT+0200 (Mitteleuropäische Sommerzeit),1562931205802,39.65388333333333,b2_exp,19
547,,3336,20,,1562933585035,71,30,female,Yes,NA,NA,NA,not at all,very much,images/stimuli/30.jpg,How well can you identify patterns in this painting?,6,10,Fri Jul 12 2019 13:33:25 GMT+0200 (Mitteleuropäische Sommerzeit),1562931205802,39.65388333333333,b2_exp,20
547,,7185,20,,1562933585035,71,25,female,Yes,NA,NA,NA,not at all,very much,images/stimuli/25.jpg,How well can you identify patterns in this painting?,6,10,Fri Jul 12 2019 13:33:25 GMT+0200 (Mitteleuropäische Sommerzeit),1562931205802,39.65388333333333,b2_exp,21
547,,2039,20,,1562933585035,71,17,female,Yes,NA,NA,NA,not at all,very much,images/stimuli/17.jpg,How well can you identify patterns in this painting?,1,10,Fri Jul 12 2019 13:33:25 GMT+0200 (Mitteleuropäische Sommerzeit),1562931205802,39.65388333333333,b2_exp,22
547,,7086,20,,1562933585035,71,22,female,Yes,NA,NA,NA,not at all,very much,images/stimuli/22.jpg,How well can you identify patterns in this painting?,3,10,Fri Jul 12 2019 13:33:25 GMT+0200 (Mitteleuropäische Sommerzeit),1562931205802,39.65388333333333,b2_exp,23
547,,23843,20,,1562933585035,71,10,female,Yes,NA,NA,NA,not at all,very much,images/stimuli/10.jpg,How well can you identify patterns in this painting?,2,10,Fri Jul 12 2019 13:33:25 GMT+0200 (Mitteleuropäische Sommerzeit),1562931205802,39.65388333333333,b2_exp,24
547,,6141,20,,1562933585035,71,28,female,Yes,NA,NA,NA,not at all,very much,images/stimuli/28.jpg,How well can you identify patterns in this painting?,7,10,Fri Jul 12 2019 13:33:25 GMT+0200 (Mitteleuropäische Sommerzeit),1562931205802,39.65388333333333,b2_exp,25
547,,3594,20,,1562933585035,71,36,female,Yes,NA,NA,NA,not at all,very much,images/stimuli/36.jpg,How well can you identify patterns in this painting?,5,10,Fri Jul 12 2019 13:33:25 GMT+0200 (Mitteleuropäische Sommerzeit),1562931205802,39.65388333333333,b2_exp,26
547,,2243,20,,1562933585035,71,3,female,Yes,NA,NA,NA,not at all,very much,images/stimuli/3.jpg,How well can you identify patterns in this painting?,1,10,Fri Jul 12 2019 13:33:25 GMT+0200 (Mitteleuropäische Sommerzeit),1562931205802,39.65388333333333,b2_exp,27
547,,2150,20,,1562933585035,71,14,female,Yes,NA,NA,NA,not at all,very much,images/stimuli/14.jpg,How well can you identify patterns in this painting?,1,10,Fri Jul 12 2019 13:33:25 GMT+0200 (Mitteleuropäische Sommerzeit),1562931205802,39.65388333333333,b2_exp,28
547,,4721,20,,1562933585035,71,19,female,Yes,NA,NA,NA,not at all,very much,images/stimuli/19.jpg,How well can you identify patterns in this painting?,4,10,Fri Jul 12 2019 13:33:25 GMT+0200 (Mitteleuropäische Sommerzeit),1562931205802,39.65388333333333,b2_exp,29
547,,2238,20,,1562933585035,71,43,female,Yes,NA,NA,NA,not at all,very much,images/stimuli/43.jpg,How well can you identify patterns in this painting?,1,10,Fri Jul 12 2019 13:33:25 GMT+0200 (Mitteleuropäische Sommerzeit),1562931205802,39.65388333333333,b2_exp,30
547,,2764,20,,1562933585035,71,56,female,Yes,NA,NA,NA,not at all,very much,images/stimuli/56.jpg,How well can you identify patterns in this painting?,1,10,Fri Jul 12 2019 13:33:25 GMT+0200 (Mitteleuropäische Sommerzeit),1562931205802,39.65388333333333,b2_exp,31
547,,2064,20,,1562933585035,71,15,female,Yes,NA,NA,NA,not at all,very much,images/stimuli/15.jpg,How well can you identify patterns in this painting?,1,10,Fri Jul 12 2019 13:33:25 GMT+0200 (Mitteleuropäische Sommerzeit),1562931205802,39.65388333333333,b2_exp,32
547,,2054,20,,1562933585035,71,44,female,Yes,NA,NA,NA,not at all,very much,images/stimuli/44.jpg,How well can you identify patterns in this painting?,1,10,Fri Jul 12 2019 13:33:25 GMT+0200 (Mitteleuropäische Sommerzeit),1562931205802,39.65388333333333,b2_exp,33
547,,1213,20,,1562933585035,71,57,female,Yes,NA,NA,NA,not at all,very much,images/stimuli/57.jpg,How well can you identify patterns in this painting?,1,10,Fri Jul 12 2019 13:33:25 GMT+0200 (Mitteleuropäische Sommerzeit),1562931205802,39.65388333333333,b2_exp,34
547,,1293,20,,1562933585035,71,8,female,Yes,NA,NA,NA,not at all,very much,images/stimuli/8.jpg,How well can you identify patterns in this painting?,1,10,Fri Jul 12 2019 13:33:25 GMT+0200 (Mitteleuropäische Sommerzeit),1562931205802,39.65388333333333,b2_exp,35
547,,2602,20,,1562933585035,71,59,female,Yes,NA,NA,NA,not at all,very much,images/stimuli/59.jpg,How well can you identify patterns in this painting?,3,10,Fri Jul 12 2019 13:33:25 GMT+0200 (Mitteleuropäische Sommerzeit),1562931205802,39.65388333333333,b2_exp,36
547,,3706,20,,1562933585035,71,38,female,Yes,NA,NA,NA,not at all,very much,images/stimuli/38.jpg,How well can you identify patterns in this painting?,6,10,Fri Jul 12 2019 13:33:25 GMT+0200 (Mitteleuropäische Sommerzeit),1562931205802,39.65388333333333,b2_exp,37
547,,1814,20,,1562933585035,71,42,female,Yes,NA,NA,NA,not at all,very much,images/stimuli/42.jpg,How well can you identify patterns in this painting?,1,10,Fri Jul 12 2019 13:33:25 GMT+0200 (Mitteleuropäische Sommerzeit),1562931205802,39.65388333333333,b2_exp,38
547,,2146,20,,1562933585035,71,47,female,Yes,NA,NA,NA,not at all,very much,images/stimuli/47.jpg,How well can you identify patterns in this painting?,1,10,Fri Jul 12 2019 13:33:25 GMT+0200 (Mitteleuropäische Sommerzeit),1562931205802,39.65388333333333,b2_exp,39
547,,950,20,,1562933585035,71,9,female,Yes,NA,NA,NA,not at all,very much,images/stimuli/9.jpg,How well can you identify patterns in this painting?,1,10,Fri Jul 12 2019 13:33:25 GMT+0200 (Mitteleuropäische Sommerzeit),1562931205802,39.65388333333333,b2_exp,40
547,,3049,20,,1562933585035,71,18,female,Yes,NA,NA,NA,not at all,very much,images/stimuli/18.jpg,How well can you identify patterns in this painting?,1,10,Fri Jul 12 2019 13:33:25 GMT+0200 (Mitteleuropäische Sommerzeit),1562931205802,39.65388333333333,b2_exp,41
547,,2044,20,,1562933585035,71,20,female,Yes,NA,NA,NA,not at all,very much,images/stimuli/20.jpg,How well can you identify patterns in this painting?,5,10,Fri Jul 12 2019 13:33:25 GMT+0200 (Mitteleuropäische Sommerzeit),1562931205802,39.65388333333333,b2_exp,42
547,,13207,20,,1562933585035,71,21,female,Yes,NA,NA,NA,not at all,very much,images/stimuli/21.jpg,How well can you identify patterns in this painting?,3,10,Fri Jul 12 2019 13:33:25 GMT+0200 (Mitteleuropäische Sommerzeit),1562931205802,39.65388333333333,b2_exp,43
547,,4111,20,,1562933585035,71,1,female,Yes,NA,NA,NA,not at all,very much,images/stimuli/1.jpg,How well can you identify patterns in this painting?,1,10,Fri Jul 12 2019 13:33:25 GMT+0200 (Mitteleuropäische Sommerzeit),1562931205802,39.65388333333333,b2_exp,44
547,,1238,20,,1562933585035,71,40,female,Yes,NA,NA,NA,not at all,very much,images/stimuli/40.jpg,How well can you identify patterns in this painting?,1,10,Fri Jul 12 2019 13:33:25 GMT+0200 (Mitteleuropäische Sommerzeit),1562931205802,39.65388333333333,b2_exp,45
547,,1804,20,,1562933585035,71,39,female,Yes,NA,NA,NA,not at all,very much,images/stimuli/39.jpg,How well can you identify patterns in this painting?,2,10,Fri Jul 12 2019 13:33:25 GMT+0200 (Mitteleuropäische Sommerzeit),1562931205802,39.65388333333333,b2_exp,46
547,,1891,20,,1562933585035,71,29,female,Yes,NA,NA,NA,not at all,very much,images/stimuli/29.jpg,How well can you identify patterns in this painting?,5,10,Fri Jul 12 2019 13:33:25 GMT+0200 (Mitteleuropäische Sommerzeit),1562931205802,39.65388333333333,b2_exp,47
547,,2067,20,,1562933585035,71,4,female,Yes,NA,NA,NA,not at all,very much,images/stimuli/4.jpg,How well can you identify patterns in this painting?,2,10,Fri Jul 12 2019 13:33:25 GMT+0200 (Mitteleuropäische Sommerzeit),1562931205802,39.65388333333333,b2_exp,48
547,,2691,20,,1562933585035,71,51,female,Yes,NA,NA,NA,not at all,very much,images/stimuli/51.jpg,How well can you identify patterns in this painting?,7,10,Fri Jul 12 2019 13:33:25 GMT+0200 (Mitteleuropäische Sommerzeit),1562931205802,39.65388333333333,b2_exp,49
547,,4227,20,,1562933585035,71,16,female,Yes,NA,NA,NA,not at all,very much,images/stimuli/16.jpg,How well can you identify patterns in this painting?,1,10,Fri Jul 12 2019 13:33:25 GMT+0200 (Mitteleuropäische Sommerzeit),1562931205802,39.65388333333333,b2_exp,50
547,,2179,20,,1562933585035,71,31,female,Yes,NA,NA,NA,not at all,very much,images/stimuli/31.jpg,How well can you identify patterns in this painting?,7,10,Fri Jul 12 2019 13:33:25 GMT+0200 (Mitteleuropäische Sommerzeit),1562931205802,39.65388333333333,b2_exp,51
547,,1731,20,,1562933585035,71,7,female,Yes,NA,NA,NA,not at all,very much,images/stimuli/7.jpg,How well can you identify patterns in this painting?,1,10,Fri Jul 12 2019 13:33:25 GMT+0200 (Mitteleuropäische Sommerzeit),1562931205802,39.65388333333333,b2_exp,52
547,,2128,20,,1562933585035,71,23,female,Yes,NA,NA,NA,not at all,very much,images/stimuli/23.jpg,How well can you identify patterns in this painting?,5,10,Fri Jul 12 2019 13:33:25 GMT+0200 (Mitteleuropäische Sommerzeit),1562931205802,39.65388333333333,b2_exp,53
547,,5222,20,,1562933585035,71,55,female,Yes,NA,NA,NA,not at all,very much,images/stimuli/55.jpg,How well can you identify patterns in this painting?,1,10,Fri Jul 12 2019 13:33:25 GMT+0200 (Mitteleuropäische Sommerzeit),1562931205802,39.65388333333333,b2_exp,54
547,,1270,20,,1562933585035,71,13,female,Yes,NA,NA,NA,not at all,very much,images/stimuli/13.jpg,How well can you identify patterns in this painting?,1,10,Fri Jul 12 2019 13:33:25 GMT+0200 (Mitteleuropäische Sommerzeit),1562931205802,39.65388333333333,b2_exp,55
547,,1237,20,,1562933585035,71,41,female,Yes,NA,NA,NA,not at all,very much,images/stimuli/41.jpg,How well can you identify patterns in this painting?,1,10,Fri Jul 12 2019 13:33:25 GMT+0200 (Mitteleuropäische Sommerzeit),1562931205802,39.65388333333333,b2_exp,56
547,,1651,20,,1562933585035,71,45,female,Yes,NA,NA,NA,not at all,very much,images/stimuli/45.jpg,How well can you identify patterns in this painting?,1,10,Fri Jul 12 2019 13:33:25 GMT+0200 (Mitteleuropäische Sommerzeit),1562931205802,39.65388333333333,b2_exp,57
547,,2031,20,,1562933585035,71,12,female,Yes,NA,NA,NA,not at all,very much,images/stimuli/12.jpg,How well can you identify patterns in this painting?,3,10,Fri Jul 12 2019 13:33:25 GMT+0200 (Mitteleuropäische Sommerzeit),1562931205802,39.65388333333333,b2_exp,58
547,,2108,20,,1562933585035,71,54,female,Yes,NA,NA,NA,not at all,very much,images/stimuli/54.jpg,How well can you identify patterns in this painting?,2,10,Fri Jul 12 2019 13:33:25 GMT+0200 (Mitteleuropäische Sommerzeit),1562931205802,39.65388333333333,b2_exp,59
547,,16149,20,,1562933585035,71,24,female,Yes,NA,NA,NA,not at all,very much,images/stimuli/24.jpg,How well can you identify patterns in this painting?,6,10,Fri Jul 12 2019 13:33:25 GMT+0200 (Mitteleuropäische Sommerzeit),1562931205802,39.65388333333333,b2_exp,60
553,,40309,19,,1562939950595,71,NA,female,No,0,NA,NA,NA,NA,images/snellen/snellen.png,Which row is the last one where you can recognize <strong>all letters</strong>? Only type in the number of this row (between 1 and 11): ,8,8,Fri Jul 12 2019 15:35:12 GMT+0200 (CEST),1562938512580,23.966916666666666,test_snellen,1
553,,11117,19,,1562939950595,71,NA,female,No,NA,Yes,No,NA,NA,NA,Do you consider yourself an <strong>expert in cubist art</strong> or were ever engaged in any kind of cubist art education?,No,8,Fri Jul 12 2019 15:35:12 GMT+0200 (CEST),1562938512580,23.966916666666666,b0_expert,1
553,,28275,19,,1562939950595,71,32,female,No,NA,NA,NA,not at all,very much,images/stimuli/32.jpg,How much do you like this painting?,4,8,Fri Jul 12 2019 15:35:12 GMT+0200 (CEST),1562938512580,23.966916666666666,b1_exp,1
553,,9227,19,,1562939950595,71,60,female,No,NA,NA,NA,not at all,very much,images/stimuli/60.jpg,How much do you like this painting?,5,8,Fri Jul 12 2019 15:35:12 GMT+0200 (CEST),1562938512580,23.966916666666666,b1_exp,2
553,,13632,19,,1562939950595,71,12,female,No,NA,NA,NA,not at all,very much,images/stimuli/12.jpg,How much do you like this painting?,4,8,Fri Jul 12 2019 15:35:12 GMT+0200 (CEST),1562938512580,23.966916666666666,b1_exp,3
553,,12877,19,,1562939950595,71,51,female,No,NA,NA,NA,not at all,very much,images/stimuli/51.jpg,How much do you like this painting?,5,8,Fri Jul 12 2019 15:35:12 GMT+0200 (CEST),1562938512580,23.966916666666666,b1_exp,4
553,,7049,19,,1562939950595,71,3,female,No,NA,NA,NA,not at all,very much,images/stimuli/3.jpg,How much do you like this painting?,4,8,Fri Jul 12 2019 15:35:12 GMT+0200 (CEST),1562938512580,23.966916666666666,b1_exp,5
553,,3722,19,,1562939950595,71,35,female,No,NA,NA,NA,not at all,very much,images/stimuli/35.jpg,How much do you like this painting?,3,8,Fri Jul 12 2019 15:35:12 GMT+0200 (CEST),1562938512580,23.966916666666666,b1_exp,6
553,,4495,19,,1562939950595,71,4,female,No,NA,NA,NA,not at all,very much,images/stimuli/4.jpg,How much do you like this painting?,2,8,Fri Jul 12 2019 15:35:12 GMT+0200 (CEST),1562938512580,23.966916666666666,b1_exp,7
553,,11278,19,,1562939950595,71,54,female,No,NA,NA,NA,not at all,very much,images/stimuli/54.jpg,How much do you like this painting?,2,8,Fri Jul 12 2019 15:35:12 GMT+0200 (CEST),1562938512580,23.966916666666666,b1_exp,8
553,,12173,19,,1562939950595,71,59,female,No,NA,NA,NA,not at all,very much,images/stimuli/59.jpg,How much do you like this painting?,3,8,Fri Jul 12 2019 15:35:12 GMT+0200 (CEST),1562938512580,23.966916666666666,b1_exp,9
553,,3036,19,,1562939950595,71,2,female,No,NA,NA,NA,not at all,very much,images/stimuli/2.jpg,How much do you like this painting?,4,8,Fri Jul 12 2019 15:35:12 GMT+0200 (CEST),1562938512580,23.966916666666666,b1_exp,10
553,,16288,19,,1562939950595,71,46,female,No,NA,NA,NA,not at all,very much,images/stimuli/46.jpg,How much do you like this painting?,3,8,Fri Jul 12 2019 15:35:12 GMT+0200 (CEST),1562938512580,23.966916666666666,b1_exp,11
553,,11526,19,,1562939950595,71,49,female,No,NA,NA,NA,not at all,very much,images/stimuli/49.jpg,How much do you like this painting?,4,8,Fri Jul 12 2019 15:35:12 GMT+0200 (CEST),1562938512580,23.966916666666666,b1_exp,12
553,,6616,19,,1562939950595,71,25,female,No,NA,NA,NA,not at all,very much,images/stimuli/25.jpg,How much do you like this painting?,2,8,Fri Jul 12 2019 15:35:12 GMT+0200 (CEST),1562938512580,23.966916666666666,b1_exp,13
553,,3744,19,,1562939950595,71,42,female,No,NA,NA,NA,not at all,very much,images/stimuli/42.jpg,How much do you like this painting?,2,8,Fri Jul 12 2019 15:35:12 GMT+0200 (CEST),1562938512580,23.966916666666666,b1_exp,14
553,,4891,19,,1562939950595,71,22,female,No,NA,NA,NA,not at all,very much,images/stimuli/22.jpg,How much do you like this painting?,1,8,Fri Jul 12 2019 15:35:12 GMT+0200 (CEST),1562938512580,23.966916666666666,b1_exp,15
553,,5792,19,,1562939950595,71,15,female,No,NA,NA,NA,not at all,very much,images/stimuli/15.jpg,How much do you like this painting?,2,8,Fri Jul 12 2019 15:35:12 GMT+0200 (CEST),1562938512580,23.966916666666666,b1_exp,16
553,,3310,19,,1562939950595,71,21,female,No,NA,NA,NA,not at all,very much,images/stimuli/21.jpg,How much do you like this painting?,1,8,Fri Jul 12 2019 15:35:12 GMT+0200 (CEST),1562938512580,23.966916666666666,b1_exp,17
553,,2916,19,,1562939950595,71,11,female,No,NA,NA,NA,not at all,very much,images/stimuli/11.jpg,How much do you like this painting?,2,8,Fri Jul 12 2019 15:35:12 GMT+0200 (CEST),1562938512580,23.966916666666666,b1_exp,18
553,,3485,19,,1562939950595,71,6,female,No,NA,NA,NA,not at all,very much,images/stimuli/6.jpg,How much do you like this painting?,3,8,Fri Jul 12 2019 15:35:12 GMT+0200 (CEST),1562938512580,23.966916666666666,b1_exp,19
553,,4639,19,,1562939950595,71,28,female,No,NA,NA,NA,not at all,very much,images/stimuli/28.jpg,How much do you like this painting?,2,8,Fri Jul 12 2019 15:35:12 GMT+0200 (CEST),1562938512580,23.966916666666666,b1_exp,20
553,,2091,19,,1562939950595,71,55,female,No,NA,NA,NA,not at all,very much,images/stimuli/55.jpg,How much do you like this painting?,1,8,Fri Jul 12 2019 15:35:12 GMT+0200 (CEST),1562938512580,23.966916666666666,b1_exp,21
553,,6735,19,,1562939950595,71,48,female,No,NA,NA,NA,not at all,very much,images/stimuli/48.jpg,How much do you like this painting?,3,8,Fri Jul 12 2019 15:35:12 GMT+0200 (CEST),1562938512580,23.966916666666666,b1_exp,22
553,,4821,19,,1562939950595,71,56,female,No,NA,NA,NA,not at all,very much,images/stimuli/56.jpg,How much do you like this painting?,4,8,Fri Jul 12 2019 15:35:12 GMT+0200 (CEST),1562938512580,23.966916666666666,b1_exp,23
553,,8294,19,,1562939950595,71,19,female,No,NA,NA,NA,not at all,very much,images/stimuli/19.jpg,How much do you like this painting?,2,8,Fri Jul 12 2019 15:35:12 GMT+0200 (CEST),1562938512580,23.966916666666666,b1_exp,24
553,,11193,19,,1562939950595,71,36,female,No,NA,NA,NA,not at all,very much,images/stimuli/36.jpg,How much do you like this painting?,5,8,Fri Jul 12 2019 15:35:12 GMT+0200 (CEST),1562938512580,23.966916666666666,b1_exp,25
553,,4979,19,,1562939950595,71,40,female,No,NA,NA,NA,not at all,very much,images/stimuli/40.jpg,How much do you like this painting?,3,8,Fri Jul 12 2019 15:35:12 GMT+0200 (CEST),1562938512580,23.966916666666666,b1_exp,26
553,,8082,19,,1562939950595,71,38,female,No,NA,NA,NA,not at all,very much,images/stimuli/38.jpg,How much do you like this painting?,2,8,Fri Jul 12 2019 15:35:12 GMT+0200 (CEST),1562938512580,23.966916666666666,b1_exp,27
553,,2328,19,,1562939950595,71,14,female,No,NA,NA,NA,not at all,very much,images/stimuli/14.jpg,How much do you like this painting?,2,8,Fri Jul 12 2019 15:35:12 GMT+0200 (CEST),1562938512580,23.966916666666666,b1_exp,28
553,,9690,19,,1562939950595,71,33,female,No,NA,NA,NA,not at all,very much,images/stimuli/33.jpg,How much do you like this painting?,2,8,Fri Jul 12 2019 15:35:12 GMT+0200 (CEST),1562938512580,23.966916666666666,b1_exp,29
553,,2974,19,,1562939950595,71,10,female,No,NA,NA,NA,not at all,very much,images/stimuli/10.jpg,How much do you like this painting?,3,8,Fri Jul 12 2019 15:35:12 GMT+0200 (CEST),1562938512580,23.966916666666666,b1_exp,30
553,,11686,19,,1562939950595,71,47,female,No,NA,NA,NA,not at all,very much,images/stimuli/47.jpg,How much do you like this painting?,4,8,Fri Jul 12 2019 15:35:12 GMT+0200 (CEST),1562938512580,23.966916666666666,b1_exp,31
553,,3640,19,,1562939950595,71,27,female,No,NA,NA,NA,not at all,very much,images/stimuli/27.jpg,How much do you like this painting?,3,8,Fri Jul 12 2019 15:35:12 GMT+0200 (CEST),1562938512580,23.966916666666666,b1_exp,32
553,,1737,19,,1562939950595,71,57,female,No,NA,NA,NA,not at all,very much,images/stimuli/57.jpg,How much do you like this painting?,2,8,Fri Jul 12 2019 15:35:12 GMT+0200 (CEST),1562938512580,23.966916666666666,b1_exp,33
553,,5116,19,,1562939950595,71,31,female,No,NA,NA,NA,not at all,very much,images/stimuli/31.jpg,How much do you like this painting?,4,8,Fri Jul 12 2019 15:35:12 GMT+0200 (CEST),1562938512580,23.966916666666666,b1_exp,34
553,,11954,19,,1562939950595,71,41,female,No,NA,NA,NA,not at all,very much,images/stimuli/41.jpg,How much do you like this painting?,2,8,Fri Jul 12 2019 15:35:12 GMT+0200 (CEST),1562938512580,23.966916666666666,b1_exp,35
553,,6171,19,,1562939950595,71,37,female,No,NA,NA,NA,not at all,very much,images/stimuli/37.jpg,How much do you like this painting?,2,8,Fri Jul 12 2019 15:35:12 GMT+0200 (CEST),1562938512580,23.966916666666666,b1_exp,36
553,,2003,19,,1562939950595,71,45,female,No,NA,NA,NA,not at all,very much,images/stimuli/45.jpg,How much do you like this painting?,2,8,Fri Jul 12 2019 15:35:12 GMT+0200 (CEST),1562938512580,23.966916666666666,b1_exp,37
553,,7549,19,,1562939950595,71,50,female,No,NA,NA,NA,not at all,very much,images/stimuli/50.jpg,How much do you like this painting?,3,8,Fri Jul 12 2019 15:35:12 GMT+0200 (CEST),1562938512580,23.966916666666666,b1_exp,38
553,,2914,19,,1562939950595,71,17,female,No,NA,NA,NA,not at all,very much,images/stimuli/17.jpg,How much do you like this painting?,4,8,Fri Jul 12 2019 15:35:12 GMT+0200 (CEST),1562938512580,23.966916666666666,b1_exp,39
